"subID","block","trial","image","imageIdx","cueIdx","cue_string","congruent","response","accuracy","RT","cueDuration","learningRound","trueCue","congCue","imgLockedRT","condition"
32,1,1," S4-20.jpg",2,2," purple","congruent",2,1,1.9575,0.8,1,0.8,0.8,1.1575,"condition_80cue"
32,1,2," S3-12.jpg",1,3," green","neutral",1,1,1.5058,0.8,1,0.5,0.5,0.7058,"condition_80cue"
32,1,3," S4-20.jpg",2,2," purple","congruent",2,1,1.4387,0.8167,1,0.8,0.8,0.622,"condition_80cue"
32,1,4," S3-12.jpg",1,1," orange","congruent",1,1,1.8709,0.9,1,0.8,0.8,0.9709,"condition_80cue"
32,1,5," S3-12.jpg",1,2," purple","incongruent",1,1,2.4218,1.1667,1,0.8,0.2,1.2551,"condition_80cue"
32,1,6," S3-12.jpg",1,1," orange","congruent",1,1,1.6326,0.7667,1,0.8,0.8,0.8659,"condition_80cue"
32,1,7," S3-12.jpg",1,1," orange","congruent",1,1,1.6266,0.9167,1,0.8,0.8,0.7099,"condition_80cue"
32,1,8," S3-12.jpg",1,1," orange","congruent",1,1,1.7539,1.1167,1,0.8,0.8,0.6372,"condition_80cue"
32,1,9," S4-20.jpg",2,3," green","neutral",2,1,1.378,0.8667,1,0.5,0.5,0.5113,"condition_80cue"
32,1,10," S3-12.jpg",1,3," green","neutral",1,1,1.4364,0.8,1,0.5,0.5,0.6364,"condition_80cue"
32,1,11," S3-12.jpg",1,3," green","neutral",1,1,1.8377,0.9167,1,0.5,0.5,0.921,"condition_80cue"
32,1,12," S3-12.jpg",1,1," orange","congruent",1,1,0.751,0.8333,1,0.8,0.8,-0.0823,"condition_80cue"
32,1,13," S4-20.jpg",2,1," orange","incongruent",1,0,0.5429,1.5,1,0.8,0.2,-0.9571,"condition_80cue"
32,1,14," S3-12.jpg",1,1," orange","congruent",1,1,1.4248,0.8333,1,0.8,0.8,0.5915,"condition_80cue"
32,1,15," S3-12.jpg",1,3," green","neutral",1,1,1.4248,0.9833,1,0.5,0.5,0.4415,"condition_80cue"
32,1,16," S3-12.jpg",1,2," purple","incongruent",2,0,0.6569,0.7667,1,0.8,0.2,-0.1098,"condition_80cue"
32,1,17," S4-20.jpg",2,3," green","neutral",1,0,1.142,0.85,1,0.5,0.5,0.292,"condition_80cue"
32,1,18," S3-12.jpg",1,3," green","neutral",2,0,1.2598,0.7833,1,0.5,0.5,0.4765,"condition_80cue"
32,1,19," S3-12.jpg",1,2," purple","incongruent",2,0,0.8117,0.7833,1,0.8,0.2,0.0284,"condition_80cue"
32,1,20," S3-12.jpg",1,3," green","neutral",1,1,0.5828,0.8167,1,0.5,0.5,-0.2339,"condition_80cue"
32,1,21," S4-20.jpg",2,2," purple","congruent",2,1,0.6111,0.8333,1,0.8,0.8,-0.2222,"condition_80cue"
32,1,22," S4-20.jpg",2,2," purple","congruent",2,1,0.5672,0.8833,1,0.8,0.8,-0.3161,"condition_80cue"
32,1,23," S3-12.jpg",1,2," purple","incongruent",2,0,0.5418,1.05,1,0.8,0.2,-0.5082,"condition_80cue"
32,1,24," S4-20.jpg",2,2," purple","congruent",2,1,1.0003,0.9333,1,0.8,0.8,0.067,"condition_80cue"
32,1,25," S4-20.jpg",2,2," purple","congruent",2,1,0.5591,0.7667,1,0.8,0.8,-0.2076,"condition_80cue"
32,1,26," S3-12.jpg",1,1," orange","congruent",1,1,0.5943,0.8667,1,0.8,0.8,-0.2724,"condition_80cue"
32,1,27," S4-20.jpg",2,3," green","neutral",1,0,0.5607,0.7833,1,0.5,0.5,-0.2226,"condition_80cue"
32,1,28," S3-12.jpg",1,3," green","neutral",1,1,1.5881,0.8333,1,0.5,0.5,0.7548,"condition_80cue"
32,1,29," S4-20.jpg",2,3," green","neutral",1,0,0.5569,0.8167,1,0.5,0.5,-0.2598,"condition_80cue"
32,1,30," S4-20.jpg",2,2," purple","congruent",2,1,0.6283,0.9667,1,0.8,0.8,-0.3384,"condition_80cue"
32,1,31," S3-12.jpg",1,3," green","neutral",1,1,0.8713,0.7667,1,0.5,0.5,0.1046,"condition_80cue"
32,1,32," S3-12.jpg",1,2," purple","incongruent",2,0,0.5235,0.9,1,0.8,0.2,-0.3765,"condition_80cue"
32,1,33," S3-12.jpg",1,3," green","neutral",1,1,0.74,0.75,1,0.5,0.5,-0.01,"condition_80cue"
32,1,34," S4-20.jpg",2,3," green","neutral",1,0,0.883,0.7667,1,0.5,0.5,0.1163,"condition_80cue"
32,1,35," S3-12.jpg",1,1," orange","congruent",1,1,0.8044,1.0833,1,0.8,0.8,-0.2789,"condition_80cue"
32,1,36," S3-12.jpg",1,1," orange","congruent",1,1,0.7937,1.1333,1,0.8,0.8,-0.3396,"condition_80cue"
32,1,37," S4-20.jpg",2,2," purple","congruent",2,1,0.7147,0.85,1,0.8,0.8,-0.1353,"condition_80cue"
32,1,38," S3-12.jpg",1,1," orange","congruent",1,1,0.8572,0.9,1,0.8,0.8,-0.0428000000000001,"condition_80cue"
32,1,39," S4-20.jpg",2,2," purple","congruent",2,1,0.7326,1.0167,1,0.8,0.8,-0.2841,"condition_80cue"
32,1,40," S4-20.jpg",2,3," green","neutral",1,0,0.6898,1,1,0.5,0.5,-0.3102,"condition_80cue"
32,1,41," S4-20.jpg",2,2," purple","congruent",2,1,0.7622,0.85,1,0.8,0.8,-0.0878,"condition_80cue"
32,1,42," S4-20.jpg",2,2," purple","congruent",2,1,0.5972,0.8833,1,0.8,0.8,-0.2861,"condition_80cue"
32,1,43," S3-12.jpg",1,3," green","neutral",1,1,0.6104,0.8,1,0.5,0.5,-0.1896,"condition_80cue"
32,1,44," S4-20.jpg",2,2," purple","congruent",2,1,0.5379,1,1,0.8,0.8,-0.4621,"condition_80cue"
32,1,45," S3-12.jpg",1,1," orange","congruent",1,1,0.7982,0.7833,1,0.8,0.8,0.0149,"condition_80cue"
32,1,46," S3-12.jpg",1,1," orange","congruent",1,1,0.6055,0.7833,1,0.8,0.8,-0.1778,"condition_80cue"
32,1,47," S4-20.jpg",2,3," green","neutral",1,0,0.7875,0.85,1,0.5,0.5,-0.0625,"condition_80cue"
32,1,48," S4-20.jpg",2,1," orange","incongruent",1,0,0.8479,0.75,1,0.8,0.2,0.0979,"condition_80cue"
32,1,49," S3-12.jpg",1,3," green","neutral",1,1,1.0477,0.8167,1,0.5,0.5,0.231,"condition_80cue"
32,1,50," S3-12.jpg",1,1," orange","congruent",2,0,0.7653,0.95,1,0.8,0.8,-0.1847,"condition_80cue"
32,1,51," S3-12.jpg",1,1," orange","congruent",1,1,0.6897,1.5,1,0.8,0.8,-0.8103,"condition_80cue"
32,1,52," S4-20.jpg",2,2," purple","congruent",2,1,0.632,1.0333,1,0.8,0.8,-0.4013,"condition_80cue"
32,1,53," S4-20.jpg",2,1," orange","incongruent",1,0,0.8699,0.7833,1,0.8,0.2,0.0866,"condition_80cue"
32,1,54," S4-20.jpg",2,3," green","neutral",1,0,1.0237,0.9167,1,0.5,0.5,0.107,"condition_80cue"
32,1,55," S3-12.jpg",1,3," green","neutral",1,1,1.719,0.95,1,0.5,0.5,0.769,"condition_80cue"
32,1,56," S3-12.jpg",1,1," orange","congruent",1,1,1.4368,0.7667,1,0.8,0.8,0.6701,"condition_80cue"
32,1,57," S4-20.jpg",2,2," purple","congruent",2,1,1.0007,0.8667,1,0.8,0.8,0.134,"condition_80cue"
32,1,58," S4-20.jpg",2,2," purple","congruent",2,1,0.6144,0.8,1,0.8,0.8,-0.1856,"condition_80cue"
32,1,59," S4-20.jpg",2,3," green","neutral",1,0,0.7157,0.8667,1,0.5,0.5,-0.151,"condition_80cue"
32,1,60," S3-12.jpg",1,1," orange","congruent",1,1,1.1652,0.8833,1,0.8,0.8,0.2819,"condition_80cue"
32,1,61," S3-12.jpg",1,1," orange","congruent",1,1,0.9209,1.0667,1,0.8,0.8,-0.1458,"condition_80cue"
32,1,62," S4-20.jpg",2,2," purple","congruent",2,1,0.7916,0.85,1,0.8,0.8,-0.0584,"condition_80cue"
32,1,63," S4-20.jpg",2,1," orange","incongruent",1,0,1.2819,0.9667,1,0.8,0.2,0.3152,"condition_80cue"
32,1,64," S4-20.jpg",2,3," green","neutral",1,0,0.629,0.8333,1,0.5,0.5,-0.2043,"condition_80cue"
32,1,65," S4-20.jpg",2,2," purple","congruent",2,1,0.8404,1.15,1,0.8,0.8,-0.3096,"condition_80cue"
32,1,66," S3-12.jpg",1,3," green","neutral",1,1,0.8481,0.7833,1,0.5,0.5,0.0648,"condition_80cue"
32,1,67," S4-20.jpg",2,3," green","neutral",1,0,0.6499,1.1,1,0.5,0.5,-0.4501,"condition_80cue"
32,1,68," S4-20.jpg",2,2," purple","congruent",2,1,1.2021,0.8167,1,0.8,0.8,0.3854,"condition_80cue"
32,1,69," S3-12.jpg",1,1," orange","congruent",1,1,1.4837,0.8833,1,0.8,0.8,0.6004,"condition_80cue"
32,1,70," S4-20.jpg",2,2," purple","congruent",2,1,1.6828,0.9333,1,0.8,0.8,0.7495,"condition_80cue"
32,1,71," S3-12.jpg",1,1," orange","congruent",1,1,0.7651,0.9833,1,0.8,0.8,-0.2182,"condition_80cue"
32,1,72," S3-12.jpg",1,1," orange","congruent",1,1,0.8237,0.7667,1,0.8,0.8,0.0569999999999999,"condition_80cue"
32,1,73," S4-20.jpg",2,3," green","neutral",1,0,0.859,0.8,1,0.5,0.5,0.0589999999999999,"condition_80cue"
32,1,74," S4-20.jpg",2,2," purple","congruent",2,1,1.0823,0.9333,1,0.8,0.8,0.149,"condition_80cue"
32,1,75," S4-20.jpg",2,1," orange","incongruent",1,0,1.0827,0.8167,1,0.8,0.2,0.266,"condition_80cue"
33,1,1," S2-19.jpg",1,3," red","neutral",NA,0,NA,0.8333,1,0.5,0.5,NA,"condition_80cue"
33,1,2," S1-15.jpg",2,2," blue","congruent",2,1,1.7549,1.0833,1,0.8,0.8,0.6716,"condition_80cue"
33,1,3," S2-19.jpg",1,1," yellow","congruent",1,1,2.2502,0.9167,1,0.8,0.8,1.3335,"condition_80cue"
33,1,4," S1-15.jpg",2,2," blue","congruent",2,1,1.6625,0.7833,1,0.8,0.8,0.8792,"condition_80cue"
33,1,5," S2-19.jpg",1,2," blue","incongruent",1,1,1.7559,0.8333,1,0.8,0.2,0.9226,"condition_80cue"
33,1,6," S2-19.jpg",1,1," yellow","congruent",1,1,2.0502,1.1,1,0.8,0.8,0.9502,"condition_80cue"
33,1,7," S2-19.jpg",1,1," yellow","congruent",1,1,1.6853,0.7833,1,0.8,0.8,0.902,"condition_80cue"
33,1,8," S2-19.jpg",1,3," red","neutral",1,1,1.8842,0.9,1,0.5,0.5,0.9842,"condition_80cue"
33,1,9," S1-15.jpg",2,2," blue","congruent",2,1,1.7763,0.8,1,0.8,0.8,0.9763,"condition_80cue"
33,1,10," S2-19.jpg",1,1," yellow","congruent",1,1,1.8598,0.8667,1,0.8,0.8,0.9931,"condition_80cue"
33,1,11," S2-19.jpg",1,3," red","neutral",1,1,1.3766,0.75,1,0.5,0.5,0.6266,"condition_80cue"
33,1,12," S1-15.jpg",2,2," blue","congruent",2,1,1.6478,0.7667,1,0.8,0.8,0.8811,"condition_80cue"
33,1,13," S2-19.jpg",1,1," yellow","congruent",1,1,1.5564,0.9,1,0.8,0.8,0.6564,"condition_80cue"
33,1,14," S1-15.jpg",2,2," blue","congruent",2,1,0.7285,0.9333,1,0.8,0.8,-0.2048,"condition_80cue"
33,1,15," S1-15.jpg",2,3," red","neutral",2,1,1.6836,0.8833,1,0.5,0.5,0.8003,"condition_80cue"
33,1,16," S1-15.jpg",2,2," blue","congruent",2,1,1.4953,0.95,1,0.8,0.8,0.5453,"condition_80cue"
33,1,17," S1-15.jpg",2,1," yellow","incongruent",1,0,0.5831,0.85,1,0.8,0.2,-0.2669,"condition_80cue"
33,1,18," S2-19.jpg",1,2," blue","incongruent",1,1,2.2123,1.0333,1,0.8,0.2,1.179,"condition_80cue"
33,1,19," S2-19.jpg",1,1," yellow","congruent",1,1,2.2005,1.1167,1,0.8,0.8,1.0838,"condition_80cue"
33,1,20," S1-15.jpg",2,3," red","neutral",2,1,1.3904,0.7833,1,0.5,0.5,0.6071,"condition_80cue"
33,1,21," S1-15.jpg",2,2," blue","congruent",2,1,1.8251,0.8833,1,0.8,0.8,0.9418,"condition_80cue"
33,1,22," S1-15.jpg",2,2," blue","congruent",2,1,1.5895,0.7833,1,0.8,0.8,0.8062,"condition_80cue"
33,1,23," S1-15.jpg",2,3," red","neutral",2,1,1.6721,1.1333,1,0.5,0.5,0.5388,"condition_80cue"
33,1,24," S1-15.jpg",2,2," blue","congruent",2,1,1.3189,0.8333,1,0.8,0.8,0.4856,"condition_80cue"
33,1,25," S2-19.jpg",1,2," blue","incongruent",1,1,1.7891,1,1,0.8,0.2,0.7891,"condition_80cue"
33,1,26," S1-15.jpg",2,3," red","neutral",2,1,1.59,0.8167,1,0.5,0.5,0.7733,"condition_80cue"
33,1,27," S2-19.jpg",1,1," yellow","congruent",1,1,1.4481,0.7667,1,0.8,0.8,0.6814,"condition_80cue"
33,1,28," S1-15.jpg",2,2," blue","congruent",2,1,1.6717,0.9667,1,0.8,0.8,0.705,"condition_80cue"
33,1,29," S1-15.jpg",2,2," blue","congruent",2,1,1.848,1.15,1,0.8,0.8,0.698,"condition_80cue"
33,1,30," S1-15.jpg",2,2," blue","congruent",2,1,1.4604,0.9167,1,0.8,0.8,0.5437,"condition_80cue"
33,1,31," S2-19.jpg",1,3," red","neutral",1,1,1.6224,0.8,1,0.5,0.5,0.8224,"condition_80cue"
33,1,32," S2-19.jpg",1,1," yellow","congruent",1,1,1.9778,0.7667,1,0.8,0.8,1.2111,"condition_80cue"
33,1,33," S1-15.jpg",2,3," red","neutral",2,1,1.6244,0.8167,1,0.5,0.5,0.8077,"condition_80cue"
33,1,34," S2-19.jpg",1,1," yellow","congruent",1,1,1.6599,0.8833,1,0.8,0.8,0.7766,"condition_80cue"
33,1,35," S2-19.jpg",1,3," red","neutral",1,1,1.695,0.7667,1,0.5,0.5,0.9283,"condition_80cue"
33,1,36," S2-19.jpg",1,3," red","neutral",1,1,1.6475,1.05,1,0.5,0.5,0.5975,"condition_80cue"
33,1,37," S2-19.jpg",1,3," red","neutral",1,1,1.3657,0.8667,1,0.5,0.5,0.499,"condition_80cue"
33,1,38," S2-19.jpg",1,1," yellow","congruent",1,1,1.2844,0.8,1,0.8,0.8,0.4844,"condition_80cue"
33,1,39," S1-15.jpg",2,3," red","neutral",2,1,1.613,0.85,1,0.5,0.5,0.763,"condition_80cue"
33,1,40," S2-19.jpg",1,3," red","neutral",1,1,2.2246,0.8167,1,0.5,0.5,1.4079,"condition_80cue"
33,1,41," S1-15.jpg",2,2," blue","congruent",2,1,1.753,0.9833,1,0.8,0.8,0.7697,"condition_80cue"
33,1,42," S2-19.jpg",1,1," yellow","congruent",1,1,2.1059,0.9833,1,0.8,0.8,1.1226,"condition_80cue"
33,1,43," S1-15.jpg",2,1," yellow","incongruent",2,1,1.4362,0.8167,1,0.8,0.2,0.6195,"condition_80cue"
33,1,44," S2-19.jpg",1,2," blue","incongruent",1,1,1.6699,0.9333,1,0.8,0.2,0.7366,"condition_80cue"
33,1,45," S1-15.jpg",2,3," red","neutral",2,1,2.071,0.7833,1,0.5,0.5,1.2877,"condition_80cue"
33,1,46," S2-19.jpg",1,1," yellow","congruent",1,1,1.4947,0.85,1,0.8,0.8,0.6447,"condition_80cue"
33,1,47," S1-15.jpg",2,2," blue","congruent",2,1,1.7649,1.0167,1,0.8,0.8,0.7482,"condition_80cue"
33,1,48," S1-15.jpg",2,2," blue","congruent",2,1,1.6114,0.7833,1,0.8,0.8,0.8281,"condition_80cue"
33,1,49," S2-19.jpg",1,1," yellow","congruent",1,1,1.5196,0.85,1,0.8,0.8,0.6696,"condition_80cue"
33,1,50," S1-15.jpg",2,2," blue","congruent",2,1,1.6014,0.7667,1,0.8,0.8,0.8347,"condition_80cue"
33,1,51," S1-15.jpg",2,1," yellow","incongruent",2,1,1.6358,0.8167,1,0.8,0.2,0.8191,"condition_80cue"
33,1,52," S2-19.jpg",1,1," yellow","congruent",1,1,1.4593,0.8,1,0.8,0.8,0.6593,"condition_80cue"
33,1,53," S1-15.jpg",2,3," red","neutral",2,1,1.6245,0.9,1,0.5,0.5,0.7245,"condition_80cue"
33,1,54," S2-19.jpg",1,2," blue","incongruent",1,1,1.9546,0.9667,1,0.8,0.2,0.9879,"condition_80cue"
33,1,55," S1-15.jpg",2,1," yellow","incongruent",2,1,1.9185,0.8667,1,0.8,0.2,1.0518,"condition_80cue"
33,1,56," S2-19.jpg",1,1," yellow","congruent",1,1,1.883,0.85,1,0.8,0.8,1.033,"condition_80cue"
33,1,57," S1-15.jpg",2,2," blue","congruent",2,1,2.1416,1.5,1,0.8,0.8,0.6416,"condition_80cue"
33,1,58," S2-19.jpg",1,3," red","neutral",1,1,1.8952,0.8,1,0.5,0.5,1.0952,"condition_80cue"
33,1,59," S1-15.jpg",2,3," red","neutral",2,1,1.8948,0.8333,1,0.5,0.5,1.0615,"condition_80cue"
33,1,60," S1-15.jpg",2,3," red","neutral",1,0,2.1425,1.1667,1,0.5,0.5,0.9758,"condition_80cue"
33,1,61," S1-15.jpg",2,2," blue","congruent",2,1,1.7067,0.95,1,0.8,0.8,0.7567,"condition_80cue"
33,1,62," S1-15.jpg",2,3," red","neutral",2,1,1.4833,0.7667,1,0.5,0.5,0.7166,"condition_80cue"
33,1,63," S1-15.jpg",2,2," blue","congruent",2,1,1.3664,0.8,1,0.8,0.8,0.5664,"condition_80cue"
33,1,64," S2-19.jpg",1,1," yellow","congruent",1,1,1.5896,0.9167,1,0.8,0.8,0.6729,"condition_80cue"
33,1,65," S2-19.jpg",1,3," red","neutral",1,1,1.6122,0.8667,1,0.5,0.5,0.7455,"condition_80cue"
33,1,66," S1-15.jpg",2,2," blue","congruent",2,1,1.518,0.7667,1,0.8,0.8,0.7513,"condition_80cue"
33,1,67," S2-19.jpg",1,3," red","neutral",1,1,1.5183,0.9333,1,0.5,0.5,0.585,"condition_80cue"
33,1,68," S2-19.jpg",1,1," yellow","congruent",1,1,1.6119,0.75,1,0.8,0.8,0.8619,"condition_80cue"
33,1,69," S2-19.jpg",1,3," red","neutral",1,1,2.2955,1,1,0.5,0.5,1.2955,"condition_80cue"
33,1,70," S1-15.jpg",2,3," red","neutral",2,1,1.9072,0.8167,1,0.5,0.5,1.0905,"condition_80cue"
33,1,71," S2-19.jpg",1,1," yellow","congruent",1,1,1.6712,0.8333,1,0.8,0.8,0.8379,"condition_80cue"
33,1,72," S2-19.jpg",1,1," yellow","congruent",1,1,1.5423,0.7833,1,0.8,0.8,0.759,"condition_80cue"
33,1,73," S1-15.jpg",2,1," yellow","incongruent",2,1,2.1422,0.8833,1,0.8,0.2,1.2589,"condition_80cue"
33,1,74," S2-19.jpg",1,3," red","neutral",1,1,2.3425,1.5,1,0.5,0.5,0.8425,"condition_80cue"
33,1,75," S2-19.jpg",1,1," yellow","congruent",1,1,1.9772,1.0667,1,0.8,0.8,0.9105,"condition_80cue"
35,1,1," S2-19.jpg",1,3," red","neutral",NA,0,NA,0.7667,1,0.5,0.5,NA,"condition_80cue"
35,1,2," S2-19.jpg",1,1," blue","congruent",1,1,1.2733,0.8167,1,0.8,0.8,0.4566,"condition_80cue"
35,1,3," S1-15.jpg",2,3," red","neutral",2,1,1.3772,0.8667,1,0.5,0.5,0.5105,"condition_80cue"
35,1,4," S1-15.jpg",2,1," blue","incongruent",2,1,1.4742,1.0167,1,0.8,0.2,0.4575,"condition_80cue"
35,1,5," S2-19.jpg",1,1," blue","congruent",1,1,1.4724,0.8833,1,0.8,0.8,0.5891,"condition_80cue"
35,1,6," S2-19.jpg",1,1," blue","congruent",1,1,1.201,0.7833,1,0.8,0.8,0.4177,"condition_80cue"
35,1,7," S1-15.jpg",2,3," red","neutral",2,1,1.2369,0.9333,1,0.5,0.5,0.3036,"condition_80cue"
35,1,8," S1-15.jpg",2,3," red","neutral",2,1,0.3513,0.7833,1,0.5,0.5,-0.432,"condition_80cue"
35,1,9," S1-15.jpg",2,2," yellow","congruent",2,1,1.4133,0.8,1,0.8,0.8,0.6133,"condition_80cue"
35,1,10," S1-15.jpg",2,2," yellow","congruent",2,1,1.4248,1,1,0.8,0.8,0.4248,"condition_80cue"
35,1,11," S1-15.jpg",2,3," red","neutral",2,1,0.6884,0.8,1,0.5,0.5,-0.1116,"condition_80cue"
35,1,12," S2-19.jpg",1,3," red","neutral",2,0,0.457,0.9,1,0.5,0.5,-0.443,"condition_80cue"
35,1,13," S2-19.jpg",1,1," blue","congruent",1,1,0.4174,0.8667,1,0.8,0.8,-0.4493,"condition_80cue"
35,1,14," S1-15.jpg",2,3," red","neutral",2,1,0.5916,0.7667,1,0.5,0.5,-0.1751,"condition_80cue"
35,1,15," S1-15.jpg",2,2," yellow","congruent",2,1,1.5619,1.1167,1,0.8,0.8,0.4452,"condition_80cue"
35,1,16," S2-19.jpg",1,1," blue","congruent",1,1,0.5669,0.8167,1,0.8,0.8,-0.2498,"condition_80cue"
35,1,17," S2-19.jpg",1,1," blue","congruent",1,1,0.5398,0.9667,1,0.8,0.8,-0.4269,"condition_80cue"
35,1,18," S2-19.jpg",1,3," red","neutral",2,0,0.3194,0.95,1,0.5,0.5,-0.6306,"condition_80cue"
35,1,19," S2-19.jpg",1,1," blue","congruent",1,1,0.9058,0.7833,1,0.8,0.8,0.1225,"condition_80cue"
35,1,20," S1-15.jpg",2,2," yellow","congruent",2,1,1.0268,1.15,1,0.8,0.8,-0.1232,"condition_80cue"
35,1,21," S1-15.jpg",2,2," yellow","congruent",2,1,0.4223,0.9667,1,0.8,0.8,-0.5444,"condition_80cue"
35,1,22," S2-19.jpg",1,2," yellow","incongruent",2,0,0.467,1.1333,1,0.8,0.2,-0.6663,"condition_80cue"
35,1,23," S1-15.jpg",2,3," red","neutral",1,0,0.713,0.85,1,0.5,0.5,-0.137,"condition_80cue"
35,1,24," S1-15.jpg",2,2," yellow","congruent",2,1,0.7641,1.5,1,0.8,0.8,-0.7359,"condition_80cue"
35,1,25," S2-19.jpg",1,1," blue","congruent",1,1,0.5573,0.8667,1,0.8,0.8,-0.3094,"condition_80cue"
35,1,26," S2-19.jpg",1,2," yellow","incongruent",2,0,0.5157,0.7833,1,0.8,0.2,-0.2676,"condition_80cue"
35,1,27," S1-15.jpg",2,1," blue","incongruent",1,0,0.4589,0.8333,1,0.8,0.2,-0.3744,"condition_80cue"
35,1,28," S1-15.jpg",2,2," yellow","congruent",2,1,0.5703,0.8167,1,0.8,0.8,-0.2464,"condition_80cue"
35,1,29," S1-15.jpg",2,3," red","neutral",2,1,0.6063,0.9333,1,0.5,0.5,-0.327,"condition_80cue"
35,1,30," S1-15.jpg",2,2," yellow","congruent",2,1,0.5101,0.8333,1,0.8,0.8,-0.3232,"condition_80cue"
35,1,31," S1-15.jpg",2,1," blue","incongruent",1,0,0.4332,0.8667,1,0.8,0.2,-0.4335,"condition_80cue"
35,1,32," S1-15.jpg",2,2," yellow","congruent",2,1,0.5835,0.7667,1,0.8,0.8,-0.1832,"condition_80cue"
35,1,33," S1-15.jpg",2,3," red","neutral",2,1,0.5091,0.8333,1,0.5,0.5,-0.3242,"condition_80cue"
35,1,34," S2-19.jpg",1,3," red","neutral",2,0,0.4727,0.85,1,0.5,0.5,-0.3773,"condition_80cue"
35,1,35," S1-15.jpg",2,3," red","neutral",1,0,0.7392,1.0833,1,0.5,0.5,-0.3441,"condition_80cue"
35,1,36," S2-19.jpg",1,3," red","neutral",2,0,0.4964,1.1,1,0.5,0.5,-0.6036,"condition_80cue"
35,1,37," S2-19.jpg",1,2," yellow","incongruent",2,0,0.9311,0.9833,1,0.8,0.2,-0.0521999999999999,"condition_80cue"
35,1,38," S2-19.jpg",1,1," blue","congruent",1,1,0.4513,1.05,1,0.8,0.8,-0.5987,"condition_80cue"
35,1,39," S2-19.jpg",1,3," red","neutral",1,1,0.5818,0.9,1,0.5,0.5,-0.3182,"condition_80cue"
35,1,40," S2-19.jpg",1,1," blue","congruent",1,1,0.527,0.8,1,0.8,0.8,-0.273,"condition_80cue"
35,1,41," S2-19.jpg",1,1," blue","congruent",1,1,0.4643,0.7667,1,0.8,0.8,-0.3024,"condition_80cue"
35,1,42," S2-19.jpg",1,3," red","neutral",2,0,0.4519,0.9833,1,0.5,0.5,-0.5314,"condition_80cue"
35,1,43," S1-15.jpg",2,2," yellow","congruent",2,1,0.7886,0.9,1,0.8,0.8,-0.1114,"condition_80cue"
35,1,44," S1-15.jpg",2,3," red","neutral",1,0,0.4134,0.8167,1,0.5,0.5,-0.4033,"condition_80cue"
35,1,45," S1-15.jpg",2,2," yellow","congruent",2,1,0.548,1.5,1,0.8,0.8,-0.952,"condition_80cue"
35,1,46," S1-15.jpg",2,2," yellow","congruent",2,1,0.5492,0.7833,1,0.8,0.8,-0.2341,"condition_80cue"
35,1,47," S1-15.jpg",2,2," yellow","congruent",1,0,0.589,0.8,1,0.8,0.8,-0.211,"condition_80cue"
35,1,48," S1-15.jpg",2,2," yellow","congruent",2,1,0.5499,1.0667,1,0.8,0.8,-0.5168,"condition_80cue"
35,1,49," S2-19.jpg",1,2," yellow","incongruent",2,0,0.4927,0.9167,1,0.8,0.2,-0.424,"condition_80cue"
35,1,50," S2-19.jpg",1,3," red","neutral",2,0,0.7027,0.7667,1,0.5,0.5,-0.0640000000000001,"condition_80cue"
35,1,51," S1-15.jpg",2,2," yellow","congruent",2,1,0.4822,0.8833,1,0.8,0.8,-0.4011,"condition_80cue"
35,1,52," S2-19.jpg",1,1," blue","congruent",1,1,0.4895,0.8833,1,0.8,0.8,-0.3938,"condition_80cue"
35,1,53," S2-19.jpg",1,1," blue","congruent",1,1,0.5526,0.8333,1,0.8,0.8,-0.2807,"condition_80cue"
35,1,54," S2-19.jpg",1,3," red","neutral",2,0,0.4001,0.8333,1,0.5,0.5,-0.4332,"condition_80cue"
35,1,55," S2-19.jpg",1,1," blue","congruent",1,1,0.542,0.8167,1,0.8,0.8,-0.2747,"condition_80cue"
35,1,56," S2-19.jpg",1,3," red","neutral",1,1,0.4604,0.8833,1,0.5,0.5,-0.4229,"condition_80cue"
35,1,57," S2-19.jpg",1,3," red","neutral",2,0,0.8253,1.1667,1,0.5,0.5,-0.3414,"condition_80cue"
35,1,58," S2-19.jpg",1,1," blue","congruent",1,1,0.5095,0.9167,1,0.8,0.8,-0.4072,"condition_80cue"
35,1,59," S2-19.jpg",1,1," blue","congruent",1,1,0.4964,1.0333,1,0.8,0.8,-0.5369,"condition_80cue"
35,1,60," S1-15.jpg",2,2," yellow","congruent",2,1,1.2846,0.8167,1,0.8,0.8,0.4679,"condition_80cue"
35,1,61," S2-19.jpg",1,1," blue","congruent",1,1,0.5999,0.7667,1,0.8,0.8,-0.1668,"condition_80cue"
35,1,62," S1-15.jpg",2,2," yellow","congruent",2,1,0.669,0.85,1,0.8,0.8,-0.181,"condition_80cue"
35,1,63," S1-15.jpg",2,2," yellow","congruent",2,1,0.662,0.7667,1,0.8,0.8,-0.1047,"condition_80cue"
35,1,64," S1-15.jpg",2,3," red","neutral",1,0,0.77,1,1,0.5,0.5,-0.23,"condition_80cue"
35,1,65," S1-15.jpg",2,2," yellow","congruent",2,1,0.6111,0.75,1,0.8,0.8,-0.1389,"condition_80cue"
35,1,66," S2-19.jpg",1,1," blue","congruent",1,1,0.5101,0.85,1,0.8,0.8,-0.3399,"condition_80cue"
35,1,67," S2-19.jpg",1,1," blue","congruent",1,1,0.5039,0.7833,1,0.8,0.8,-0.2794,"condition_80cue"
35,1,68," S1-15.jpg",2,1," blue","incongruent",1,0,0.504,0.9333,1,0.8,0.2,-0.4293,"condition_80cue"
35,1,69," S2-19.jpg",1,2," yellow","incongruent",2,0,0.6868,0.9167,1,0.8,0.2,-0.2299,"condition_80cue"
35,1,70," S1-15.jpg",2,3," red","neutral",1,0,0.5313,0.8,1,0.5,0.5,-0.2687,"condition_80cue"
35,1,71," S2-19.jpg",1,3," red","neutral",1,1,0.4901,0.75,1,0.5,0.5,-0.2599,"condition_80cue"
35,1,72," S1-15.jpg",2,2," yellow","congruent",2,1,0.5987,0.95,1,0.8,0.8,-0.3513,"condition_80cue"
35,1,73," S2-19.jpg",1,1," blue","congruent",1,1,0.4012,0.8,1,0.8,0.8,-0.3988,"condition_80cue"
35,1,74," S1-15.jpg",2,1," blue","incongruent",1,0,0.4338,0.85,1,0.8,0.2,-0.4162,"condition_80cue"
35,1,75," S1-15.jpg",2,3," red","neutral",2,1,0.4349,0.7833,1,0.5,0.5,-0.3484,"condition_80cue"
36,1,1," S4-20.jpg",2,1," yellow","incongruent",NA,0,NA,0.7667,1,0.8,0.2,NA,"condition_80cue"
36,1,2," S4-20.jpg",2,3," red","neutral",1,0,1.6571,0.75,1,0.5,0.5,0.9071,"condition_80cue"
36,1,3," S3-12.jpg",1,1," yellow","congruent",1,1,1.7795,0.9167,1,0.8,0.8,0.8628,"condition_80cue"
36,1,4," S4-20.jpg",2,2," blue","congruent",2,1,1.6132,0.8667,1,0.8,0.8,0.7465,"condition_80cue"
36,1,5," S3-12.jpg",1,1," yellow","congruent",1,1,1.5524,0.75,1,0.8,0.8,0.8024,"condition_80cue"
36,1,6," S3-12.jpg",1,3," red","neutral",1,1,1.4506,0.85,1,0.5,0.5,0.6006,"condition_80cue"
36,1,7," S4-20.jpg",2,2," blue","congruent",2,1,1.4266,1.0333,1,0.8,0.8,0.3933,"condition_80cue"
36,1,8," S4-20.jpg",2,2," blue","congruent",2,1,1.2026,0.8,1,0.8,0.8,0.4026,"condition_80cue"
36,1,9," S3-12.jpg",1,3," red","neutral",1,1,0.4657,0.7833,1,0.5,0.5,-0.3176,"condition_80cue"
36,1,10," S4-20.jpg",2,3," red","neutral",1,0,0.4649,1.0167,1,0.5,0.5,-0.5518,"condition_80cue"
36,1,11," S4-20.jpg",2,2," blue","congruent",2,1,1.2955,0.8333,1,0.8,0.8,0.4622,"condition_80cue"
36,1,12," S4-20.jpg",2,2," blue","congruent",2,1,1.2477,0.85,1,0.8,0.8,0.3977,"condition_80cue"
36,1,13," S3-12.jpg",1,1," yellow","congruent",1,1,1.872,1.2,1,0.8,0.8,0.672,"condition_80cue"
36,1,14," S3-12.jpg",1,1," yellow","congruent",1,1,1.3908,0.9833,1,0.8,0.8,0.4075,"condition_80cue"
36,1,15," S3-12.jpg",1,3," red","neutral",2,0,0.6863,1.1833,1,0.5,0.5,-0.497,"condition_80cue"
36,1,16," S4-20.jpg",2,2," blue","congruent",1,0,2.0837,1.0833,1,0.8,0.8,1.0004,"condition_80cue"
36,1,17," S3-12.jpg",1,2," blue","incongruent",1,1,1.7533,1.1,1,0.8,0.2,0.6533,"condition_80cue"
36,1,18," S3-12.jpg",1,1," yellow","congruent",1,1,1.5674,0.9,1,0.8,0.8,0.6674,"condition_80cue"
36,1,19," S4-20.jpg",2,2," blue","congruent",2,1,1.5887,0.8333,1,0.8,0.8,0.7554,"condition_80cue"
36,1,20," S4-20.jpg",2,2," blue","congruent",2,1,1.2941,0.8,1,0.8,0.8,0.4941,"condition_80cue"
36,1,21," S4-20.jpg",2,2," blue","congruent",2,1,1.2341,0.9333,1,0.8,0.8,0.3008,"condition_80cue"
36,1,22," S3-12.jpg",1,1," yellow","congruent",1,1,1.5306,1,1,0.8,0.8,0.5306,"condition_80cue"
36,1,23," S3-12.jpg",1,1," yellow","congruent",1,1,1.4008,0.85,1,0.8,0.8,0.5508,"condition_80cue"
36,1,24," S3-12.jpg",1,1," yellow","congruent",1,1,1.213,0.7667,1,0.8,0.8,0.4463,"condition_80cue"
36,1,25," S3-12.jpg",1,1," yellow","congruent",1,1,1.2241,0.8,1,0.8,0.8,0.4241,"condition_80cue"
36,1,26," S3-12.jpg",1,2," blue","incongruent",1,1,1.4841,0.9667,1,0.8,0.2,0.5174,"condition_80cue"
36,1,27," S3-12.jpg",1,1," yellow","congruent",1,1,1.7069,1,1,0.8,0.8,0.7069,"condition_80cue"
36,1,28," S3-12.jpg",1,1," yellow","congruent",1,1,0.7178,1.5,1,0.8,0.8,-0.7822,"condition_80cue"
36,1,29," S3-12.jpg",1,1," yellow","congruent",1,1,0.4207,1.15,1,0.8,0.8,-0.7293,"condition_80cue"
36,1,30," S3-12.jpg",1,1," yellow","congruent",1,1,0.343,0.8833,1,0.8,0.8,-0.5403,"condition_80cue"
36,1,31," S4-20.jpg",2,2," blue","congruent",2,1,0.7749,0.8833,1,0.8,0.8,-0.1084,"condition_80cue"
36,1,32," S3-12.jpg",1,3," red","neutral",1,1,1.3186,0.7667,1,0.5,0.5,0.5519,"condition_80cue"
36,1,33," S3-12.jpg",1,3," red","neutral",1,1,1.5773,0.9,1,0.5,0.5,0.6773,"condition_80cue"
36,1,34," S4-20.jpg",2,3," red","neutral",2,1,1.5072,1.0167,1,0.5,0.5,0.4905,"condition_80cue"
36,1,35," S3-12.jpg",1,1," yellow","congruent",1,1,1.6953,0.9333,1,0.8,0.8,0.762,"condition_80cue"
36,1,36," S4-20.jpg",2,3," red","neutral",2,1,1.177,0.8167,1,0.5,0.5,0.3603,"condition_80cue"
36,1,37," S3-12.jpg",1,1," yellow","congruent",1,1,0.6108,0.7833,1,0.8,0.8,-0.1725,"condition_80cue"
36,1,38," S4-20.jpg",2,2," blue","congruent",2,1,1.2251,0.7833,1,0.8,0.8,0.4418,"condition_80cue"
36,1,39," S3-12.jpg",1,2," blue","incongruent",1,1,1.6362,0.95,1,0.8,0.2,0.6862,"condition_80cue"
36,1,40," S3-12.jpg",1,1," yellow","congruent",1,1,1.259,0.7833,1,0.8,0.8,0.4757,"condition_80cue"
36,1,41," S3-12.jpg",1,3," red","neutral",1,1,1.413,0.8,1,0.5,0.5,0.613,"condition_80cue"
36,1,42," S3-12.jpg",1,2," blue","incongruent",1,1,1.354,0.7667,1,0.8,0.2,0.5873,"condition_80cue"
36,1,43," S4-20.jpg",2,2," blue","congruent",2,1,1.3665,0.7667,1,0.8,0.8,0.5998,"condition_80cue"
36,1,44," S4-20.jpg",2,2," blue","congruent",2,1,1.5655,1.0667,1,0.8,0.8,0.4988,"condition_80cue"
36,1,45," S3-12.jpg",1,3," red","neutral",1,1,0.8116,0.7833,1,0.5,0.5,0.0283,"condition_80cue"
36,1,46," S4-20.jpg",2,2," blue","congruent",2,1,1.1659,0.8,1,0.8,0.8,0.3659,"condition_80cue"
36,1,47," S4-20.jpg",2,3," red","neutral",2,1,2.2122,1.5,1,0.5,0.5,0.7122,"condition_80cue"
36,1,48," S3-12.jpg",1,1," yellow","congruent",1,1,0.6024,0.8167,1,0.8,0.8,-0.2143,"condition_80cue"
36,1,49," S3-12.jpg",1,1," yellow","congruent",1,1,0.5404,0.85,1,0.8,0.8,-0.3096,"condition_80cue"
36,1,50," S3-12.jpg",1,1," yellow","congruent",1,1,0.4081,0.9333,1,0.8,0.8,-0.5252,"condition_80cue"
36,1,51," S4-20.jpg",2,2," blue","congruent",2,1,1.2476,0.7667,1,0.8,0.8,0.4809,"condition_80cue"
36,1,52," S4-20.jpg",2,2," blue","congruent",2,1,1.2127,0.8167,1,0.8,0.8,0.396,"condition_80cue"
36,1,53," S4-20.jpg",2,3," red","neutral",2,1,1.3416,0.7833,1,0.5,0.5,0.5583,"condition_80cue"
36,1,54," S3-12.jpg",1,3," red","neutral",2,0,1.1193,0.7667,1,0.5,0.5,0.3526,"condition_80cue"
36,1,55," S3-12.jpg",1,1," yellow","congruent",1,1,1.5785,0.8667,1,0.8,0.8,0.7118,"condition_80cue"
36,1,56," S3-12.jpg",1,1," yellow","congruent",1,1,0.3888,0.9,1,0.8,0.8,-0.5112,"condition_80cue"
36,1,57," S4-20.jpg",2,1," yellow","incongruent",1,0,0.3971,0.7667,1,0.8,0.2,-0.3696,"condition_80cue"
36,1,58," S3-12.jpg",1,3," red","neutral",1,1,2.0359,0.85,1,0.5,0.5,1.1859,"condition_80cue"
36,1,59," S3-12.jpg",1,1," yellow","congruent",1,1,0.8615,1.1667,1,0.8,0.8,-0.3052,"condition_80cue"
36,1,60," S4-20.jpg",2,1," yellow","incongruent",1,0,0.5072,0.8167,1,0.8,0.2,-0.3095,"condition_80cue"
36,1,61," S3-12.jpg",1,1," yellow","congruent",1,1,1.2956,0.9167,1,0.8,0.8,0.3789,"condition_80cue"
36,1,62," S4-20.jpg",2,3," red","neutral",2,1,0.5642,0.9667,1,0.5,0.5,-0.4025,"condition_80cue"
36,1,63," S3-12.jpg",1,2," blue","incongruent",2,0,0.7125,0.9833,1,0.8,0.2,-0.2708,"condition_80cue"
36,1,64," S3-12.jpg",1,3," red","neutral",1,1,0.7506,0.8167,1,0.5,0.5,-0.0660999999999999,"condition_80cue"
36,1,65," S4-20.jpg",2,2," blue","congruent",2,1,0.4736,0.9,1,0.8,0.8,-0.4264,"condition_80cue"
36,1,66," S4-20.jpg",2,1," yellow","incongruent",1,0,0.6108,1.0333,1,0.8,0.2,-0.4225,"condition_80cue"
36,1,67," S4-20.jpg",2,2," blue","congruent",2,1,0.9541,0.8333,1,0.8,0.8,0.1208,"condition_80cue"
36,1,68," S3-12.jpg",1,3," red","neutral",1,1,1.3895,0.8667,1,0.5,0.5,0.5228,"condition_80cue"
36,1,69," S4-20.jpg",2,2," blue","congruent",2,1,0.6431,0.95,1,0.8,0.8,-0.3069,"condition_80cue"
36,1,70," S4-20.jpg",2,2," blue","congruent",2,1,0.5486,1.05,1,0.8,0.8,-0.5014,"condition_80cue"
36,1,71," S3-12.jpg",1,3," red","neutral",1,1,0.7352,0.8,1,0.5,0.5,-0.0648000000000001,"condition_80cue"
36,1,72," S4-20.jpg",2,3," red","neutral",1,0,0.4093,1.1167,1,0.5,0.5,-0.7074,"condition_80cue"
36,1,73," S3-12.jpg",1,3," red","neutral",2,0,0.4795,0.8667,1,0.5,0.5,-0.3872,"condition_80cue"
36,1,74," S4-20.jpg",2,3," red","neutral",2,1,0.4515,0.8833,1,0.5,0.5,-0.4318,"condition_80cue"
36,1,75," S4-20.jpg",2,2," blue","congruent",2,1,0.859,0.8,1,0.8,0.8,0.0589999999999999,"condition_80cue"
36,1,76," S4-20.jpg",2,3," red","neutral",2,1,0.6764,0.7833,1,0.5,0.5,-0.1069,"condition_80cue"
36,1,77," S4-20.jpg",2,2," blue","congruent",1,0,0.5789,1.1333,1,0.8,0.8,-0.5544,"condition_80cue"
36,1,78," S3-12.jpg",1,3," red","neutral",2,0,0.5275,0.8333,1,0.5,0.5,-0.3058,"condition_80cue"
36,1,79," S4-20.jpg",2,2," blue","congruent",2,1,0.5662,0.7833,1,0.8,0.8,-0.2171,"condition_80cue"
36,1,80," S4-20.jpg",2,3," red","neutral",1,0,0.4121,0.8333,1,0.5,0.5,-0.4212,"condition_80cue"
36,1,81," S4-20.jpg",2,3," red","neutral",2,1,0.772,0.8333,1,0.5,0.5,-0.0613,"condition_80cue"
36,1,82," S4-20.jpg",2,2," blue","congruent",2,1,0.876,0.8667,1,0.8,0.8,0.00929999999999997,"condition_80cue"
36,1,83," S4-20.jpg",2,1," yellow","incongruent",1,0,0.4322,0.8833,1,0.8,0.2,-0.4511,"condition_80cue"
36,1,84," S3-12.jpg",1,2," blue","incongruent",2,0,0.9529,0.8,1,0.8,0.2,0.1529,"condition_80cue"
36,1,85," S4-20.jpg",2,1," yellow","incongruent",2,1,0.6179,0.8167,1,0.8,0.2,-0.1988,"condition_80cue"
36,1,86," S4-20.jpg",2,3," red","neutral",1,0,0.5415,0.8167,1,0.5,0.5,-0.2752,"condition_80cue"
36,1,87," S4-20.jpg",2,3," red","neutral",2,1,0.7019,0.7667,1,0.5,0.5,-0.0648000000000001,"condition_80cue"
36,1,88," S4-20.jpg",2,3," red","neutral",2,1,0.4937,0.9167,1,0.5,0.5,-0.423,"condition_80cue"
36,1,89," S3-12.jpg",1,3," red","neutral",2,0,0.3783,0.95,1,0.5,0.5,-0.5717,"condition_80cue"
36,1,90," S3-12.jpg",1,1," yellow","congruent",2,0,0.6902,0.7833,1,0.8,0.8,-0.0931,"condition_80cue"
37,1,1," S3-12.jpg",2,2," purple","congruent",NA,0,NA,0.7833,1,0.8,0.8,NA,"condition_80cue"
37,1,2," S4-20.jpg",1,1," orange","congruent",NA,0,NA,0.8,1,0.8,0.8,NA,"condition_80cue"
37,1,3," S3-12.jpg",2,2," purple","congruent",NA,0,NA,0.8,1,0.8,0.8,NA,"condition_80cue"
37,1,4," S3-12.jpg",2,3," green","neutral",NA,0,NA,0.8,1,0.5,0.5,NA,"condition_80cue"
37,1,5," S4-20.jpg",1,1," orange","congruent",1,1,0.4935,0.8167,1,0.8,0.8,-0.3232,"condition_80cue"
37,1,6," S4-20.jpg",1,1," orange","congruent",1,1,0.5258,0.75,1,0.8,0.8,-0.2242,"condition_80cue"
37,1,7," S3-12.jpg",2,3," green","neutral",2,1,0.5817,1.1,1,0.5,0.5,-0.5183,"condition_80cue"
37,1,8," S3-12.jpg",2,3," green","neutral",2,1,0.5006,0.8167,1,0.5,0.5,-0.3161,"condition_80cue"
37,1,9," S4-20.jpg",1,1," orange","congruent",1,1,0.5376,0.7667,1,0.8,0.8,-0.2291,"condition_80cue"
37,1,10," S3-12.jpg",2,3," green","neutral",2,1,0.489,1.1833,1,0.5,0.5,-0.6943,"condition_80cue"
37,1,11," S4-20.jpg",1,1," orange","congruent",1,1,0.5106,1.5,1,0.8,0.8,-0.9894,"condition_80cue"
37,1,12," S3-12.jpg",2,3," green","neutral",2,1,0.4753,0.8833,1,0.5,0.5,-0.408,"condition_80cue"
37,1,13," S4-20.jpg",1,1," orange","congruent",1,1,0.5085,0.9167,1,0.8,0.8,-0.4082,"condition_80cue"
37,1,14," S4-20.jpg",1,3," green","neutral",2,0,0.5528,0.95,1,0.5,0.5,-0.3972,"condition_80cue"
37,1,15," S4-20.jpg",1,1," orange","congruent",1,1,0.5827,0.7667,1,0.8,0.8,-0.184,"condition_80cue"
37,1,16," S4-20.jpg",1,1," orange","congruent",1,1,0.5113,0.8167,1,0.8,0.8,-0.3054,"condition_80cue"
37,1,17," S3-12.jpg",2,2," purple","congruent",2,1,0.5146,0.9667,1,0.8,0.8,-0.4521,"condition_80cue"
37,1,18," S4-20.jpg",1,3," green","neutral",1,1,0.5297,0.8833,1,0.5,0.5,-0.3536,"condition_80cue"
37,1,19," S4-20.jpg",1,1," orange","congruent",1,1,0.4489,0.7667,1,0.8,0.8,-0.3178,"condition_80cue"
37,1,20," S4-20.jpg",1,3," green","neutral",1,1,0.5503,1.05,1,0.5,0.5,-0.4997,"condition_80cue"
37,1,21," S4-20.jpg",1,3," green","neutral",1,1,0.4579,0.9,1,0.5,0.5,-0.4421,"condition_80cue"
37,1,22," S3-12.jpg",2,3," green","neutral",1,0,0.4742,0.9167,1,0.5,0.5,-0.4425,"condition_80cue"
37,1,23," S3-12.jpg",2,2," purple","congruent",2,1,0.7578,1.5,1,0.8,0.8,-0.7422,"condition_80cue"
37,1,24," S3-12.jpg",2,1," orange","incongruent",1,0,0.5683,0.8,1,0.8,0.2,-0.2317,"condition_80cue"
37,1,25," S3-12.jpg",2,2," purple","congruent",2,1,0.8582,1.0833,1,0.8,0.8,-0.2251,"condition_80cue"
37,1,26," S3-12.jpg",2,2," purple","congruent",2,1,0.3867,0.9333,1,0.8,0.8,-0.5466,"condition_80cue"
37,1,27," S4-20.jpg",1,1," orange","congruent",1,1,0.471,0.8,1,0.8,0.8,-0.329,"condition_80cue"
37,1,28," S4-20.jpg",1,1," orange","congruent",1,1,0.3863,0.7833,1,0.8,0.8,-0.397,"condition_80cue"
37,1,29," S4-20.jpg",1,3," green","neutral",1,1,0.5113,0.7667,1,0.5,0.5,-0.2554,"condition_80cue"
37,1,30," S4-20.jpg",1,2," purple","incongruent",2,0,0.6924,0.9833,1,0.8,0.2,-0.2909,"condition_80cue"
37,1,31," S4-20.jpg",1,3," green","neutral",2,0,0.4904,0.75,1,0.5,0.5,-0.2596,"condition_80cue"
37,1,32," S3-12.jpg",2,2," purple","congruent",1,0,0.2919,0.7667,1,0.8,0.8,-0.4748,"condition_80cue"
37,1,33," S4-20.jpg",1,2," purple","incongruent",2,0,0.5133,0.8167,1,0.8,0.2,-0.3034,"condition_80cue"
37,1,34," S3-12.jpg",2,3," green","neutral",2,1,0.6459,0.7833,1,0.5,0.5,-0.1374,"condition_80cue"
37,1,35," S3-12.jpg",2,2," purple","congruent",1,0,0.5945,1.0667,1,0.8,0.8,-0.4722,"condition_80cue"
37,1,36," S4-20.jpg",1,1," orange","congruent",1,1,0.5006,0.7667,1,0.8,0.8,-0.2661,"condition_80cue"
37,1,37," S4-20.jpg",1,2," purple","incongruent",2,0,0.7807,0.8167,1,0.8,0.2,-0.036,"condition_80cue"
37,1,38," S4-20.jpg",1,2," purple","incongruent",2,0,0.5178,0.8667,1,0.8,0.2,-0.3489,"condition_80cue"
37,1,39," S4-20.jpg",1,3," green","neutral",2,0,0.9298,0.7833,1,0.5,0.5,0.1465,"condition_80cue"
37,1,40," S3-12.jpg",2,2," purple","congruent",2,1,0.7032,0.9,1,0.8,0.8,-0.1968,"condition_80cue"
37,1,41," S4-20.jpg",1,1," orange","congruent",1,1,0.4961,0.8667,1,0.8,0.8,-0.3706,"condition_80cue"
37,1,42," S4-20.jpg",1,3," green","neutral",1,1,0.6922,0.8167,1,0.5,0.5,-0.1245,"condition_80cue"
37,1,43," S3-12.jpg",2,2," purple","congruent",2,1,0.4314,1.1333,1,0.8,0.8,-0.7019,"condition_80cue"
37,1,44," S3-12.jpg",2,3," green","neutral",1,0,0.4963,1.0167,1,0.5,0.5,-0.5204,"condition_80cue"
37,1,45," S3-12.jpg",2,3," green","neutral",1,0,0.4022,0.8333,1,0.5,0.5,-0.4311,"condition_80cue"
37,1,46," S4-20.jpg",1,1," orange","congruent",1,1,0.4827,0.8333,1,0.8,0.8,-0.3506,"condition_80cue"
37,1,47," S3-12.jpg",2,2," purple","congruent",2,1,0.4887,0.8833,1,0.8,0.8,-0.3946,"condition_80cue"
37,1,48," S4-20.jpg",1,3," green","neutral",1,1,0.5929,0.8667,1,0.5,0.5,-0.2738,"condition_80cue"
37,1,49," S3-12.jpg",2,2," purple","congruent",2,1,0.3802,0.8333,1,0.8,0.8,-0.4531,"condition_80cue"
37,1,50," S4-20.jpg",1,1," orange","congruent",1,1,0.2778,1.1167,1,0.8,0.8,-0.8389,"condition_80cue"
37,1,51," S3-12.jpg",2,1," orange","incongruent",1,0,0.4715,1.0333,1,0.8,0.2,-0.5618,"condition_80cue"
37,1,52," S4-20.jpg",1,3," green","neutral",1,1,0.7031,0.85,1,0.5,0.5,-0.1469,"condition_80cue"
37,1,53," S3-12.jpg",2,3," green","neutral",1,0,0.4425,0.9667,1,0.5,0.5,-0.5242,"condition_80cue"
37,1,54," S4-20.jpg",1,1," orange","congruent",1,1,0.9916,1,1,0.8,0.8,-0.00839999999999996,"condition_80cue"
37,1,55," S3-12.jpg",2,2," purple","congruent",2,1,0.3474,0.85,1,0.8,0.8,-0.5026,"condition_80cue"
37,1,56," S4-20.jpg",1,1," orange","congruent",1,1,0.2692,0.8333,1,0.8,0.8,-0.5641,"condition_80cue"
37,1,57," S3-12.jpg",2,3," green","neutral",2,1,0.2281,0.8667,1,0.5,0.5,-0.6386,"condition_80cue"
37,1,58," S4-20.jpg",1,2," purple","incongruent",1,1,0.2251,0.85,1,0.8,0.2,-0.6249,"condition_80cue"
37,1,59," S4-20.jpg",1,3," green","neutral",2,0,0.6436,0.9,1,0.5,0.5,-0.2564,"condition_80cue"
37,1,60," S3-12.jpg",2,2," purple","congruent",2,1,0.2757,0.9333,1,0.8,0.8,-0.6576,"condition_80cue"
37,1,61," S3-12.jpg",2,2," purple","congruent",1,0,0.2407,0.7833,1,0.8,0.8,-0.5426,"condition_80cue"
37,1,62," S4-20.jpg",1,1," orange","congruent",1,1,0.4637,0.7833,1,0.8,0.8,-0.3196,"condition_80cue"
37,1,63," S3-12.jpg",2,2," purple","congruent",1,0,0.2131,1,1,0.8,0.8,-0.7869,"condition_80cue"
37,1,64," S3-12.jpg",2,2," purple","congruent",2,1,0.5283,0.95,1,0.8,0.8,-0.4217,"condition_80cue"
37,1,65," S3-12.jpg",2,1," orange","incongruent",1,0,0.4478,1.15,1,0.8,0.2,-0.7022,"condition_80cue"
37,1,66," S4-20.jpg",1,1," orange","congruent",1,1,0.6669,0.8333,1,0.8,0.8,-0.1664,"condition_80cue"
37,1,67," S4-20.jpg",1,3," green","neutral",2,0,0.4576,1.0167,1,0.5,0.5,-0.5591,"condition_80cue"
37,1,68," S3-12.jpg",2,3," green","neutral",1,0,0.2939,0.85,1,0.5,0.5,-0.5561,"condition_80cue"
37,1,69," S4-20.jpg",1,1," orange","congruent",2,0,0.2408,0.8833,1,0.8,0.8,-0.6425,"condition_80cue"
37,1,70," S3-12.jpg",2,1," orange","incongruent",1,0,0.4083,0.95,1,0.8,0.2,-0.5417,"condition_80cue"
37,1,71," S4-20.jpg",1,2," purple","incongruent",2,0,0.3373,0.8,1,0.8,0.2,-0.4627,"condition_80cue"
37,1,72," S4-20.jpg",1,1," orange","congruent",1,1,0.3648,0.7833,1,0.8,0.8,-0.4185,"condition_80cue"
37,1,73," S4-20.jpg",1,3," green","neutral",1,1,0.3303,0.8333,1,0.5,0.5,-0.503,"condition_80cue"
37,1,74," S3-12.jpg",2,2," purple","congruent",1,0,0.2651,1.0333,1,0.8,0.8,-0.7682,"condition_80cue"
37,1,75," S3-12.jpg",2,2," purple","congruent",1,0,0.3515,1.1667,1,0.8,0.8,-0.8152,"condition_80cue"
37,1,76," S4-20.jpg",1,1," orange","congruent",1,1,0.4947,0.9,1,0.8,0.8,-0.4053,"condition_80cue"
37,1,77," S4-20.jpg",1,1," orange","congruent",1,1,0.2849,1.2,1,0.8,0.8,-0.9151,"condition_80cue"
37,1,78," S3-12.jpg",2,2," purple","congruent",2,1,0.3631,0.8667,1,0.8,0.8,-0.5036,"condition_80cue"
37,1,79," S3-12.jpg",2,3," green","neutral",1,0,0.3519,0.8,1,0.5,0.5,-0.4481,"condition_80cue"
37,1,80," S4-20.jpg",1,1," orange","congruent",2,0,0.4576,0.7667,1,0.8,0.8,-0.3091,"condition_80cue"
37,1,81," S3-12.jpg",2,2," purple","congruent",1,0,0.5438,0.7833,1,0.8,0.8,-0.2395,"condition_80cue"
37,1,82," S4-20.jpg",1,3," green","neutral",1,1,0.6053,0.9833,1,0.5,0.5,-0.378,"condition_80cue"
37,1,83," S3-12.jpg",2,2," purple","congruent",2,1,0.7165,0.7667,1,0.8,0.8,-0.0502,"condition_80cue"
37,1,84," S3-12.jpg",2,1," orange","incongruent",1,0,0.3601,0.85,1,0.8,0.2,-0.4899,"condition_80cue"
37,1,85," S4-20.jpg",1,3," green","neutral",1,1,0.5404,0.8167,1,0.5,0.5,-0.2763,"condition_80cue"
37,1,86," S3-12.jpg",2,3," green","neutral",1,0,0.5321,0.7833,1,0.5,0.5,-0.2512,"condition_80cue"
37,1,87," S3-12.jpg",2,1," orange","incongruent",1,0,0.47,0.9333,1,0.8,0.2,-0.4633,"condition_80cue"
37,1,88," S3-12.jpg",2,3," green","neutral",1,0,0.5915,0.8,1,0.5,0.5,-0.2085,"condition_80cue"
37,1,89," S3-12.jpg",2,2," purple","congruent",1,0,1.0367,0.7667,1,0.8,0.8,0.27,"condition_80cue"
37,1,90," S3-12.jpg",2,2," purple","congruent",1,0,0.2528,0.9167,1,0.8,0.8,-0.6639,"condition_80cue"
38,1,1," S2-19.jpg",2,2," green","congruent",2,1,2.0306,1.1333,1,0.8,0.8,0.8973,"condition_80cue"
38,1,2," S1-15.jpg",1,3," purple","neutral",1,1,1.4308,0.8667,1,0.5,0.5,0.5641,"condition_80cue"
38,1,3," S2-19.jpg",2,3," purple","neutral",2,1,1.2476,0.7833,1,0.5,0.5,0.4643,"condition_80cue"
38,1,4," S2-19.jpg",2,3," purple","neutral",2,1,1.4498,0.9833,1,0.5,0.5,0.4665,"condition_80cue"
38,1,5," S1-15.jpg",1,1," orange","congruent",1,1,1.3432,0.85,1,0.8,0.8,0.4932,"condition_80cue"
38,1,6," S2-19.jpg",2,1," orange","incongruent",2,1,1.2836,0.8,1,0.8,0.2,0.4836,"condition_80cue"
38,1,7," S2-19.jpg",2,2," green","congruent",2,1,1.1651,0.7667,1,0.8,0.8,0.3984,"condition_80cue"
38,1,8," S2-19.jpg",2,2," green","congruent",2,1,0.7717,1.0333,1,0.8,0.8,-0.2616,"condition_80cue"
38,1,9," S2-19.jpg",2,2," green","congruent",1,0,0.8821,0.95,1,0.8,0.8,-0.0679,"condition_80cue"
38,1,10," S1-15.jpg",1,2," green","incongruent",2,0,0.677,0.95,1,0.8,0.2,-0.273,"condition_80cue"
38,1,11," S1-15.jpg",1,1," orange","congruent",1,1,1.1778,1.0333,1,0.8,0.8,0.1445,"condition_80cue"
38,1,12," S2-19.jpg",2,2," green","congruent",2,1,1.566,1.1833,1,0.8,0.8,0.3827,"condition_80cue"
38,1,13," S1-15.jpg",1,3," purple","neutral",1,1,1.6369,1.1167,1,0.5,0.5,0.5202,"condition_80cue"
38,1,14," S1-15.jpg",1,1," orange","congruent",1,1,1.3553,0.8,1,0.8,0.8,0.5553,"condition_80cue"
38,1,15," S1-15.jpg",1,3," purple","neutral",1,1,1.2598,0.7833,1,0.5,0.5,0.4765,"condition_80cue"
38,1,16," S1-15.jpg",1,2," green","incongruent",2,0,1.0957,0.8333,1,0.8,0.2,0.2624,"condition_80cue"
38,1,17," S1-15.jpg",1,1," orange","congruent",1,1,1.3191,0.8167,1,0.8,0.8,0.5024,"condition_80cue"
38,1,18," S1-15.jpg",1,1," orange","congruent",1,1,1.2005,0.8667,1,0.8,0.8,0.3338,"condition_80cue"
38,1,19," S1-15.jpg",1,2," green","incongruent",2,0,1.0355,0.75,1,0.8,0.2,0.2855,"condition_80cue"
38,1,20," S2-19.jpg",2,2," green","congruent",2,1,1.4365,0.9,1,0.8,0.8,0.5365,"condition_80cue"
38,1,21," S2-19.jpg",2,3," purple","neutral",2,1,1.2839,0.9333,1,0.5,0.5,0.3506,"condition_80cue"
38,1,22," S1-15.jpg",1,1," orange","congruent",1,1,1.1527,0.7833,1,0.8,0.8,0.3694,"condition_80cue"
38,1,23," S2-19.jpg",2,2," green","congruent",2,1,1.072,0.8333,1,0.8,0.8,0.2387,"condition_80cue"
38,1,24," S1-15.jpg",1,2," green","incongruent",2,0,0.8233,0.9167,1,0.8,0.2,-0.0933999999999999,"condition_80cue"
38,1,25," S1-15.jpg",1,3," purple","neutral",1,1,1.2599,0.7667,1,0.5,0.5,0.4932,"condition_80cue"
38,1,26," S1-15.jpg",1,2," green","incongruent",2,0,1.4481,1.2,1,0.8,0.2,0.2481,"condition_80cue"
38,1,27," S1-15.jpg",1,3," purple","neutral",1,1,1.4251,0.9167,1,0.5,0.5,0.5084,"condition_80cue"
38,1,28," S2-19.jpg",2,2," green","congruent",2,1,1.2251,0.8833,1,0.8,0.8,0.3418,"condition_80cue"
38,1,29," S1-15.jpg",1,1," orange","congruent",1,1,0.8474,0.75,1,0.8,0.8,0.0974,"condition_80cue"
38,1,30," S1-15.jpg",1,3," purple","neutral",1,1,1.3893,0.85,1,0.5,0.5,0.5393,"condition_80cue"
38,1,31," S2-19.jpg",2,2," green","congruent",2,1,1.0239,0.7667,1,0.8,0.8,0.2572,"condition_80cue"
38,1,32," S2-19.jpg",2,2," green","congruent",2,1,1.009,0.7667,1,0.8,0.8,0.2423,"condition_80cue"
38,1,33," S1-15.jpg",1,1," orange","congruent",1,1,0.9177,0.8667,1,0.8,0.8,0.0509999999999999,"condition_80cue"
38,1,34," S2-19.jpg",2,2," green","congruent",2,1,0.7749,1,1,0.8,0.8,-0.2251,"condition_80cue"
38,1,35," S2-19.jpg",2,2," green","congruent",2,1,0.5277,0.8167,1,0.8,0.8,-0.289,"condition_80cue"
38,1,36," S1-15.jpg",1,1," orange","congruent",1,1,0.4999,1.15,1,0.8,0.8,-0.6501,"condition_80cue"
38,1,37," S1-15.jpg",1,3," purple","neutral",1,1,1.4601,1.0167,1,0.5,0.5,0.4434,"condition_80cue"
38,1,38," S1-15.jpg",1,3," purple","neutral",2,0,0.8942,0.7833,1,0.5,0.5,0.1109,"condition_80cue"
38,1,39," S1-15.jpg",1,1," orange","congruent",1,1,0.5899,0.7667,1,0.8,0.8,-0.1768,"condition_80cue"
38,1,40," S2-19.jpg",2,2," green","congruent",2,1,0.5469,0.7833,1,0.8,0.8,-0.2364,"condition_80cue"
38,1,41," S1-15.jpg",1,1," orange","congruent",1,1,0.6175,0.8667,1,0.8,0.8,-0.2492,"condition_80cue"
38,1,42," S1-15.jpg",1,1," orange","congruent",1,1,0.5009,0.8167,1,0.8,0.8,-0.3158,"condition_80cue"
38,1,43," S1-15.jpg",1,3," purple","neutral",1,1,1.3429,0.8333,1,0.5,0.5,0.5096,"condition_80cue"
38,1,44," S2-19.jpg",2,3," purple","neutral",1,0,0.6371,1.0667,1,0.5,0.5,-0.4296,"condition_80cue"
38,1,45," S2-19.jpg",2,3," purple","neutral",2,1,1.2721,0.8833,1,0.5,0.5,0.3888,"condition_80cue"
38,1,46," S2-19.jpg",2,1," orange","incongruent",1,0,0.6664,0.8833,1,0.8,0.2,-0.2169,"condition_80cue"
38,1,47," S2-19.jpg",2,3," purple","neutral",2,1,1.2485,0.7667,1,0.5,0.5,0.4818,"condition_80cue"
38,1,48," S1-15.jpg",1,3," purple","neutral",1,1,1.2499,0.85,1,0.5,0.5,0.3999,"condition_80cue"
38,1,49," S1-15.jpg",1,1," orange","congruent",1,1,1.3529,0.8167,1,0.8,0.8,0.5362,"condition_80cue"
38,1,50," S1-15.jpg",1,1," orange","congruent",1,1,0.6294,0.7667,1,0.8,0.8,-0.1373,"condition_80cue"
38,1,51," S2-19.jpg",2,2," green","congruent",2,1,0.5086,0.9667,1,0.8,0.8,-0.4581,"condition_80cue"
38,1,52," S2-19.jpg",2,2," green","congruent",2,1,0.4419,1.05,1,0.8,0.8,-0.6081,"condition_80cue"
38,1,53," S2-19.jpg",2,2," green","congruent",2,1,0.4402,0.85,1,0.8,0.8,-0.4098,"condition_80cue"
38,1,54," S2-19.jpg",2,2," green","congruent",2,1,0.4282,0.7667,1,0.8,0.8,-0.3385,"condition_80cue"
38,1,55," S1-15.jpg",1,1," orange","congruent",1,1,0.394,0.95,1,0.8,0.8,-0.556,"condition_80cue"
38,1,56," S1-15.jpg",1,3," purple","neutral",1,1,1.2138,0.8833,1,0.5,0.5,0.3305,"condition_80cue"
38,1,57," S2-19.jpg",2,3," purple","neutral",1,0,0.8663,0.9,1,0.5,0.5,-0.0337000000000001,"condition_80cue"
38,1,58," S1-15.jpg",1,3," purple","neutral",1,1,0.7391,0.8333,1,0.5,0.5,-0.0942000000000001,"condition_80cue"
38,1,59," S2-19.jpg",2,2," green","congruent",2,1,0.4603,0.8167,1,0.8,0.8,-0.3564,"condition_80cue"
38,1,60," S2-19.jpg",2,2," green","congruent",2,1,0.478,0.8,1,0.8,0.8,-0.322,"condition_80cue"
38,1,61," S1-15.jpg",1,3," purple","neutral",1,1,1.1428,0.8333,1,0.5,0.5,0.3095,"condition_80cue"
38,1,62," S1-15.jpg",1,1," orange","congruent",1,1,0.7107,1.0167,1,0.8,0.8,-0.306,"condition_80cue"
38,1,63," S2-19.jpg",2,2," green","congruent",2,1,0.5303,1.1667,1,0.8,0.8,-0.6364,"condition_80cue"
38,1,64," S1-15.jpg",1,2," green","incongruent",2,0,0.5193,0.7833,1,0.8,0.2,-0.264,"condition_80cue"
38,1,65," S2-19.jpg",2,3," purple","neutral",2,1,0.8317,0.7667,1,0.5,0.5,0.065,"condition_80cue"
38,1,66," S1-15.jpg",1,1," orange","congruent",1,1,0.5279,1.5,1,0.8,0.8,-0.9721,"condition_80cue"
38,1,67," S2-19.jpg",2,2," green","congruent",2,1,0.7359,0.8,1,0.8,0.8,-0.0641,"condition_80cue"
38,1,68," S1-15.jpg",1,1," orange","congruent",1,1,0.3626,0.8,1,0.8,0.8,-0.4374,"condition_80cue"
38,1,69," S2-19.jpg",2,3," purple","neutral",2,1,1.3545,0.9333,1,0.5,0.5,0.4212,"condition_80cue"
38,1,70," S1-15.jpg",1,1," orange","congruent",1,1,0.4411,0.9,1,0.8,0.8,-0.4589,"condition_80cue"
38,1,71," S2-19.jpg",2,3," purple","neutral",2,1,1.5539,1.0833,1,0.5,0.5,0.4706,"condition_80cue"
38,1,72," S2-19.jpg",2,3," purple","neutral",2,1,1.5773,1,1,0.5,0.5,0.5773,"condition_80cue"
38,1,73," S2-19.jpg",2,3," purple","neutral",2,1,0.4445,1.1,1,0.5,0.5,-0.6555,"condition_80cue"
38,1,74," S2-19.jpg",2,1," orange","incongruent",1,0,0.6768,0.8667,1,0.8,0.2,-0.1899,"condition_80cue"
38,1,75," S2-19.jpg",2,1," orange","incongruent",1,0,0.6076,0.9667,1,0.8,0.2,-0.3591,"condition_80cue"
38,1,76," S2-19.jpg",2,2," green","congruent",2,1,0.6474,0.85,1,0.8,0.8,-0.2026,"condition_80cue"
38,1,77," S2-19.jpg",2,1," orange","incongruent",1,0,0.4802,0.8167,1,0.8,0.2,-0.3365,"condition_80cue"
38,1,78," S1-15.jpg",1,3," purple","neutral",2,0,0.5484,0.9167,1,0.5,0.5,-0.3683,"condition_80cue"
38,1,79," S2-19.jpg",2,3," purple","neutral",1,0,0.6002,0.7833,1,0.5,0.5,-0.1831,"condition_80cue"
38,1,80," S1-15.jpg",1,1," orange","congruent",1,1,1.059,0.8167,1,0.8,0.8,0.2423,"condition_80cue"
38,1,81," S1-15.jpg",1,1," orange","congruent",1,1,0.4745,0.7833,1,0.8,0.8,-0.3088,"condition_80cue"
38,1,82," S2-19.jpg",2,3," purple","neutral",1,0,0.8874,0.9,1,0.5,0.5,-0.0126000000000001,"condition_80cue"
38,1,83," S2-19.jpg",2,2," green","congruent",2,1,0.3442,0.8,1,0.8,0.8,-0.4558,"condition_80cue"
38,1,84," S2-19.jpg",2,1," orange","incongruent",1,0,0.4027,0.8,1,0.8,0.2,-0.3973,"condition_80cue"
38,1,85," S2-19.jpg",2,3," purple","neutral",2,1,1.3905,0.8333,1,0.5,0.5,0.5572,"condition_80cue"
38,1,86," S1-15.jpg",1,1," orange","congruent",1,1,0.6191,0.8,1,0.8,0.8,-0.1809,"condition_80cue"
38,1,87," S1-15.jpg",1,1," orange","congruent",1,1,0.5742,1.5,1,0.8,0.8,-0.9258,"condition_80cue"
38,1,88," S1-15.jpg",1,3," purple","neutral",1,1,1.2134,0.7833,1,0.5,0.5,0.4301,"condition_80cue"
38,1,89," S1-15.jpg",1,1," orange","congruent",1,1,0.7254,0.9333,1,0.8,0.8,-0.2079,"condition_80cue"
38,1,90," S2-19.jpg",2,2," green","congruent",2,1,0.2925,0.9833,1,0.8,0.8,-0.6908,"condition_80cue"
39,1,1," S3-12.jpg",1,3," red","neutral",NA,0,NA,0.95,1,0.5,0.5,NA,"condition_80cue"
39,1,2," S4-20.jpg",2,2," blue","congruent",2,1,1.4938,0.8,1,0.8,0.8,0.6938,"condition_80cue"
39,1,3," S4-20.jpg",2,2," blue","congruent",2,1,1.2153,0.8833,1,0.8,0.8,0.332,"condition_80cue"
39,1,4," S4-20.jpg",2,2," blue","congruent",2,1,1.6859,1.2,1,0.8,0.8,0.4859,"condition_80cue"
39,1,5," S4-20.jpg",2,2," blue","congruent",2,1,0.2631,0.8167,1,0.8,0.8,-0.5536,"condition_80cue"
39,1,6," S3-12.jpg",1,1," yellow","congruent",1,1,1.5194,0.8667,1,0.8,0.8,0.6527,"condition_80cue"
39,1,7," S4-20.jpg",2,3," red","neutral",1,0,1.1776,0.9833,1,0.5,0.5,0.1943,"condition_80cue"
39,1,8," S4-20.jpg",2,2," blue","congruent",2,1,1.2476,0.8667,1,0.8,0.8,0.3809,"condition_80cue"
39,1,9," S4-20.jpg",2,2," blue","congruent",2,1,0.3735,0.7667,1,0.8,0.8,-0.3932,"condition_80cue"
39,1,10," S3-12.jpg",1,3," red","neutral",2,0,1.4599,0.95,1,0.5,0.5,0.5099,"condition_80cue"
39,1,11," S4-20.jpg",2,2," blue","congruent",2,1,0.8584,0.8333,1,0.8,0.8,0.0251,"condition_80cue"
39,1,12," S3-12.jpg",1,1," yellow","congruent",1,1,1.4603,0.8833,1,0.8,0.8,0.577,"condition_80cue"
39,1,13," S3-12.jpg",1,1," yellow","congruent",1,1,1.2484,0.9,1,0.8,0.8,0.3484,"condition_80cue"
39,1,14," S3-12.jpg",1,1," yellow","congruent",1,1,1.1541,0.8,1,0.8,0.8,0.3541,"condition_80cue"
39,1,15," S4-20.jpg",2,2," blue","congruent",2,1,0.4618,0.7667,1,0.8,0.8,-0.3049,"condition_80cue"
39,1,16," S3-12.jpg",1,2," blue","incongruent",2,0,0.4508,0.9667,1,0.8,0.2,-0.5159,"condition_80cue"
39,1,17," S4-20.jpg",2,2," blue","congruent",2,1,1.2834,0.75,1,0.8,0.8,0.5334,"condition_80cue"
39,1,18," S3-12.jpg",1,2," blue","incongruent",2,0,0.4799,1.0167,1,0.8,0.2,-0.5368,"condition_80cue"
39,1,19," S3-12.jpg",1,1," yellow","congruent",1,1,1.4483,0.9167,1,0.8,0.8,0.5316,"condition_80cue"
39,1,20," S4-20.jpg",2,2," blue","congruent",2,1,1.4597,0.9667,1,0.8,0.8,0.493,"condition_80cue"
39,1,21," S4-20.jpg",2,2," blue","congruent",2,1,1.3779,0.8,1,0.8,0.8,0.5779,"condition_80cue"
39,1,22," S3-12.jpg",1,1," yellow","congruent",1,1,1.3541,0.8,1,0.8,0.8,0.5541,"condition_80cue"
39,1,23," S3-12.jpg",1,3," red","neutral",1,1,1.3662,0.9,1,0.5,0.5,0.4662,"condition_80cue"
39,1,24," S4-20.jpg",2,2," blue","congruent",2,1,1.1303,0.7833,1,0.8,0.8,0.347,"condition_80cue"
39,1,25," S3-12.jpg",1,3," red","neutral",1,1,1.4128,0.7833,1,0.5,0.5,0.6295,"condition_80cue"
39,1,26," S4-20.jpg",2,3," red","neutral",2,1,1.7772,1.1333,1,0.5,0.5,0.6439,"condition_80cue"
39,1,27," S4-20.jpg",2,3," red","neutral",2,1,1.5552,0.9,1,0.5,0.5,0.6552,"condition_80cue"
39,1,28," S3-12.jpg",1,3," red","neutral",1,1,1.4714,0.8167,1,0.5,0.5,0.6547,"condition_80cue"
39,1,29," S4-20.jpg",2,2," blue","congruent",2,1,1.554,1.0167,1,0.8,0.8,0.5373,"condition_80cue"
39,1,30," S3-12.jpg",1,3," red","neutral",1,1,1.3543,0.8,1,0.5,0.5,0.5543,"condition_80cue"
39,1,31," S4-20.jpg",2,3," red","neutral",2,1,1.412,0.7833,1,0.5,0.5,0.6287,"condition_80cue"
39,1,32," S4-20.jpg",2,1," yellow","incongruent",2,1,1.4721,0.8333,1,0.8,0.2,0.6388,"condition_80cue"
39,1,33," S4-20.jpg",2,2," blue","congruent",2,1,1.305,0.7667,1,0.8,0.8,0.5383,"condition_80cue"
39,1,34," S3-12.jpg",1,3," red","neutral",1,1,1.519,0.9167,1,0.5,0.5,0.6023,"condition_80cue"
39,1,35," S4-20.jpg",2,2," blue","congruent",2,1,1.4127,0.85,1,0.8,0.8,0.5627,"condition_80cue"
39,1,36," S4-20.jpg",2,3," red","neutral",2,1,1.4369,0.85,1,0.5,0.5,0.5869,"condition_80cue"
39,1,37," S3-12.jpg",1,1," yellow","congruent",1,1,1.3781,0.7667,1,0.8,0.8,0.6114,"condition_80cue"
39,1,38," S4-20.jpg",2,3," red","neutral",2,1,1.2245,0.7833,1,0.5,0.5,0.4412,"condition_80cue"
39,1,39," S4-20.jpg",2,3," red","neutral",2,1,1.4366,0.8667,1,0.5,0.5,0.5699,"condition_80cue"
39,1,40," S3-12.jpg",1,1," yellow","congruent",1,1,1.2843,0.7833,1,0.8,0.8,0.501,"condition_80cue"
39,1,41," S4-20.jpg",2,2," blue","congruent",2,1,1.4013,1,1,0.8,0.8,0.4013,"condition_80cue"
39,1,42," S3-12.jpg",1,1," yellow","congruent",1,1,1.4133,0.95,1,0.8,0.8,0.4633,"condition_80cue"
39,1,43," S3-12.jpg",1,1," yellow","congruent",1,1,1.4606,0.9333,1,0.8,0.8,0.5273,"condition_80cue"
39,1,44," S4-20.jpg",2,3," red","neutral",2,1,1.2834,0.7667,1,0.5,0.5,0.5167,"condition_80cue"
39,1,45," S3-12.jpg",1,3," red","neutral",1,1,1.5192,0.9833,1,0.5,0.5,0.5359,"condition_80cue"
39,1,46," S3-12.jpg",1,1," yellow","congruent",1,1,1.3308,0.7833,1,0.8,0.8,0.5475,"condition_80cue"
39,1,47," S4-20.jpg",2,1," yellow","incongruent",2,1,1.6604,0.9,1,0.8,0.2,0.7604,"condition_80cue"
39,1,48," S3-12.jpg",1,2," blue","incongruent",1,1,1.4246,0.8333,1,0.8,0.2,0.5913,"condition_80cue"
39,1,49," S3-12.jpg",1,1," yellow","congruent",1,1,1.5309,0.8167,1,0.8,0.8,0.7142,"condition_80cue"
39,1,50," S3-12.jpg",1,1," yellow","congruent",1,1,1.2497,0.8667,1,0.8,0.8,0.383,"condition_80cue"
39,1,51," S3-12.jpg",1,3," red","neutral",1,1,1.7076,1.15,1,0.5,0.5,0.5576,"condition_80cue"
39,1,52," S3-12.jpg",1,1," yellow","congruent",1,1,0.6012,0.7667,1,0.8,0.8,-0.1655,"condition_80cue"
39,1,53," S3-12.jpg",1,1," yellow","congruent",1,1,0.3761,1.0333,1,0.8,0.8,-0.6572,"condition_80cue"
39,1,54," S4-20.jpg",2,1," yellow","incongruent",1,0,0.2968,1.1667,1,0.8,0.2,-0.8699,"condition_80cue"
39,1,55," S4-20.jpg",2,3," red","neutral",2,1,1.3659,0.8167,1,0.5,0.5,0.5492,"condition_80cue"
39,1,56," S3-12.jpg",1,3," red","neutral",2,0,0.8712,0.8167,1,0.5,0.5,0.0545,"condition_80cue"
39,1,57," S4-20.jpg",2,2," blue","congruent",2,1,0.5228,0.8167,1,0.8,0.8,-0.2939,"condition_80cue"
39,1,58," S3-12.jpg",1,3," red","neutral",1,1,1.2133,0.8333,1,0.5,0.5,0.38,"condition_80cue"
39,1,59," S3-12.jpg",1,1," yellow","congruent",1,1,1.2016,0.7833,1,0.8,0.8,0.4183,"condition_80cue"
39,1,60," S4-20.jpg",2,3," red","neutral",2,1,2.0723,1.5,1,0.5,0.5,0.5723,"condition_80cue"
39,1,61," S4-20.jpg",2,2," blue","congruent",2,1,0.0012,0.85,1,0.8,0.8,-0.8488,"condition_80cue"
39,1,62," S4-20.jpg",2,2," blue","congruent",2,1,2.448,1.5,1,0.8,0.8,0.948,"condition_80cue"
39,1,63," S4-20.jpg",2,3," red","neutral",2,1,1.3423,0.8,1,0.5,0.5,0.5423,"condition_80cue"
39,1,64," S4-20.jpg",2,2," blue","congruent",2,1,1.2725,0.8167,1,0.8,0.8,0.4558,"condition_80cue"
39,1,65," S4-20.jpg",2,3," red","neutral",2,1,1.2831,0.8333,1,0.5,0.5,0.4498,"condition_80cue"
39,1,66," S3-12.jpg",1,3," red","neutral",1,1,1.5899,1,1,0.5,0.5,0.5899,"condition_80cue"
39,1,67," S3-12.jpg",1,1," yellow","congruent",1,1,1.2838,0.8833,1,0.8,0.8,0.4005,"condition_80cue"
39,1,68," S4-20.jpg",2,1," yellow","incongruent",2,1,1.6021,1.0333,1,0.8,0.2,0.5688,"condition_80cue"
39,1,69," S3-12.jpg",1,1," yellow","congruent",1,1,1.566,0.9333,1,0.8,0.8,0.6327,"condition_80cue"
39,1,70," S4-20.jpg",2,3," red","neutral",2,1,1.5681,0.9167,1,0.5,0.5,0.6514,"condition_80cue"
39,1,71," S3-12.jpg",1,2," blue","incongruent",1,1,1.3427,0.8,1,0.8,0.2,0.5427,"condition_80cue"
39,1,72," S3-12.jpg",1,1," yellow","congruent",1,1,1.6368,0.7667,1,0.8,0.8,0.8701,"condition_80cue"
39,1,73," S4-20.jpg",2,2," blue","congruent",2,1,1.4831,1.0833,1,0.8,0.8,0.3998,"condition_80cue"
39,1,74," S3-12.jpg",1,1," yellow","congruent",1,1,1.5539,0.7833,1,0.8,0.8,0.7706,"condition_80cue"
39,1,75," S4-20.jpg",2,1," yellow","incongruent",2,1,1.8015,1.1167,1,0.8,0.2,0.6848,"condition_80cue"
39,1,76," S3-12.jpg",1,2," blue","incongruent",1,1,1.7889,0.75,1,0.8,0.2,1.0389,"condition_80cue"
39,1,77," S3-12.jpg",1,3," red","neutral",1,1,1.9074,1.1833,1,0.5,0.5,0.7241,"condition_80cue"
39,1,78," S3-12.jpg",1,2," blue","incongruent",1,1,1.7073,0.8833,1,0.8,0.2,0.824,"condition_80cue"
39,1,79," S4-20.jpg",2,2," blue","congruent",2,1,1.378,0.7667,1,0.8,0.8,0.6113,"condition_80cue"
39,1,80," S3-12.jpg",1,1," yellow","congruent",1,1,1.5428,0.8667,1,0.8,0.8,0.6761,"condition_80cue"
39,1,81," S3-12.jpg",1,1," yellow","congruent",1,1,1.6218,0.85,1,0.8,0.8,0.7718,"condition_80cue"
39,1,82," S3-12.jpg",1,1," yellow","congruent",1,1,1.3888,0.7833,1,0.8,0.8,0.6055,"condition_80cue"
39,1,83," S4-20.jpg",2,2," blue","congruent",2,1,1.5538,0.8333,1,0.8,0.8,0.7205,"condition_80cue"
39,1,84," S3-12.jpg",1,1," yellow","congruent",1,1,1.6581,1.0667,1,0.8,0.8,0.5914,"condition_80cue"
39,1,85," S4-20.jpg",2,1," yellow","incongruent",2,1,1.3658,0.8,1,0.8,0.2,0.5658,"condition_80cue"
39,1,86," S4-20.jpg",2,2," blue","congruent",2,1,1.354,0.85,1,0.8,0.8,0.504,"condition_80cue"
39,1,87," S3-12.jpg",1,3," red","neutral",1,1,1.6705,1.1,1,0.5,0.5,0.5705,"condition_80cue"
39,1,88," S3-12.jpg",1,3," red","neutral",1,1,1.5893,1.05,1,0.5,0.5,0.5393,"condition_80cue"
39,1,89," S4-20.jpg",2,3," red","neutral",2,1,1.7655,0.9333,1,0.5,0.5,0.8322,"condition_80cue"
39,1,90," S4-20.jpg",2,3," red","neutral",2,1,0.3365,0.7667,1,0.5,0.5,-0.4302,"condition_80cue"
40,1,1," S2-19.jpg",2,3," yellow","neutral",NA,0,NA,0.8833,1,0.5,0.5,NA,"condition_80cue"
40,1,2," S2-19.jpg",2,1," blue","incongruent",2,1,1.8084,0.8167,1,0.8,0.2,0.9917,"condition_80cue"
40,1,3," S1-15.jpg",1,1," blue","congruent",1,1,1.3322,0.85,1,0.8,0.8,0.4822,"condition_80cue"
40,1,4," S2-19.jpg",2,2," red","congruent",2,1,1.3915,0.7667,1,0.8,0.8,0.6248,"condition_80cue"
40,1,5," S1-15.jpg",1,2," red","incongruent",1,1,1.2957,0.7667,1,0.8,0.2,0.529,"condition_80cue"
40,1,6," S2-19.jpg",2,2," red","congruent",2,1,1.5681,1.0333,1,0.8,0.8,0.5348,"condition_80cue"
40,1,7," S2-19.jpg",2,2," red","congruent",2,1,1.5546,0.9167,1,0.8,0.8,0.6379,"condition_80cue"
40,1,8," S1-15.jpg",1,3," yellow","neutral",1,1,1.4724,0.8167,1,0.5,0.5,0.6557,"condition_80cue"
40,1,9," S1-15.jpg",1,2," red","incongruent",1,1,1.4827,0.7833,1,0.8,0.2,0.6994,"condition_80cue"
40,1,10," S2-19.jpg",2,3," yellow","neutral",2,1,1.448,0.7667,1,0.5,0.5,0.6813,"condition_80cue"
40,1,11," S2-19.jpg",2,3," yellow","neutral",2,1,1.4721,1,1,0.5,0.5,0.4721,"condition_80cue"
40,1,12," S1-15.jpg",1,1," blue","congruent",1,1,1.2952,0.7833,1,0.8,0.8,0.5119,"condition_80cue"
40,1,13," S2-19.jpg",2,2," red","congruent",2,1,1.4243,0.85,1,0.8,0.8,0.5743,"condition_80cue"
40,1,14," S1-15.jpg",1,3," yellow","neutral",1,1,1.3188,0.7833,1,0.5,0.5,0.5355,"condition_80cue"
40,1,15," S1-15.jpg",1,3," yellow","neutral",1,1,1.4373,0.85,1,0.5,0.5,0.5873,"condition_80cue"
40,1,16," S2-19.jpg",2,3," yellow","neutral",2,1,1.38,0.7833,1,0.5,0.5,0.5967,"condition_80cue"
40,1,17," S2-19.jpg",2,1," blue","incongruent",2,1,1.6612,1.0167,1,0.8,0.2,0.6445,"condition_80cue"
40,1,18," S2-19.jpg",2,3," yellow","neutral",2,1,1.3779,0.7833,1,0.5,0.5,0.5946,"condition_80cue"
40,1,19," S2-19.jpg",2,2," red","congruent",2,1,1.3541,0.7667,1,0.8,0.8,0.5874,"condition_80cue"
40,1,20," S1-15.jpg",1,1," blue","congruent",1,1,1.413,0.8333,1,0.8,0.8,0.5797,"condition_80cue"
40,1,21," S2-19.jpg",2,2," red","congruent",2,1,1.5183,0.8667,1,0.8,0.8,0.6516,"condition_80cue"
40,1,22," S1-15.jpg",1,3," yellow","neutral",1,1,1.6708,0.9667,1,0.5,0.5,0.7041,"condition_80cue"
40,1,23," S1-15.jpg",1,1," blue","congruent",1,1,1.5773,0.7833,1,0.8,0.8,0.794,"condition_80cue"
40,1,24," S1-15.jpg",1,2," red","incongruent",1,1,1.6129,0.9333,1,0.8,0.2,0.6796,"condition_80cue"
40,1,25," S2-19.jpg",2,1," blue","incongruent",2,1,1.4362,0.8167,1,0.8,0.2,0.6195,"condition_80cue"
40,1,26," S2-19.jpg",2,2," red","congruent",2,1,1.318,0.7833,1,0.8,0.8,0.5347,"condition_80cue"
40,1,27," S2-19.jpg",2,2," red","congruent",2,1,1.3545,0.9,1,0.8,0.8,0.4545,"condition_80cue"
40,1,28," S2-19.jpg",2,3," yellow","neutral",2,1,2.3065,1.5,1,0.5,0.5,0.8065,"condition_80cue"
40,1,29," S1-15.jpg",1,1," blue","congruent",1,1,1.2361,0.8167,1,0.8,0.8,0.4194,"condition_80cue"
40,1,30," S2-19.jpg",2,2," red","congruent",2,1,1.4724,0.9,1,0.8,0.8,0.5724,"condition_80cue"
40,1,31," S1-15.jpg",1,1," blue","congruent",1,1,1.4594,0.9333,1,0.8,0.8,0.5261,"condition_80cue"
40,1,32," S2-19.jpg",2,3," yellow","neutral",2,1,1.8482,1.1667,1,0.5,0.5,0.6815,"condition_80cue"
40,1,33," S2-19.jpg",2,2," red","congruent",2,1,1.495,0.9167,1,0.8,0.8,0.5783,"condition_80cue"
40,1,34," S2-19.jpg",2,2," red","congruent",2,1,2.0359,1.5,1,0.8,0.8,0.5359,"condition_80cue"
40,1,35," S1-15.jpg",1,3," yellow","neutral",1,1,1.3201,0.8167,1,0.5,0.5,0.5034,"condition_80cue"
40,1,36," S2-19.jpg",2,2," red","congruent",2,1,1.2719,0.7667,1,0.8,0.8,0.5052,"condition_80cue"
40,1,37," S2-19.jpg",2,3," yellow","neutral",2,1,1.7761,1.0667,1,0.5,0.5,0.7094,"condition_80cue"
40,1,38," S2-19.jpg",2,1," blue","incongruent",2,1,1.9535,0.7667,1,0.8,0.2,1.1868,"condition_80cue"
40,1,39," S1-15.jpg",1,1," blue","congruent",1,1,1.5185,0.8667,1,0.8,0.8,0.6518,"condition_80cue"
40,1,40," S1-15.jpg",1,1," blue","congruent",1,1,1.483,0.8833,1,0.8,0.8,0.5997,"condition_80cue"
40,1,41," S1-15.jpg",1,3," yellow","neutral",1,1,1.3662,0.8,1,0.5,0.5,0.5662,"condition_80cue"
40,1,42," S2-19.jpg",2,2," red","congruent",2,1,1.5311,0.8333,1,0.8,0.8,0.6978,"condition_80cue"
40,1,43," S1-15.jpg",1,3," yellow","neutral",1,1,1.3075,0.7833,1,0.5,0.5,0.5242,"condition_80cue"
40,1,44," S2-19.jpg",2,3," yellow","neutral",2,1,1.6489,0.9333,1,0.5,0.5,0.7156,"condition_80cue"
40,1,45," S1-15.jpg",1,2," red","incongruent",1,1,1.6015,1,1,0.8,0.2,0.6015,"condition_80cue"
40,1,46," S2-19.jpg",2,1," blue","incongruent",2,1,1.424,0.7833,1,0.8,0.2,0.6407,"condition_80cue"
40,1,47," S2-19.jpg",2,2," red","congruent",2,1,1.4859,1.1167,1,0.8,0.8,0.3692,"condition_80cue"
40,1,48," S1-15.jpg",1,3," yellow","neutral",2,0,0.8573,1.15,1,0.5,0.5,-0.2927,"condition_80cue"
40,1,49," S1-15.jpg",1,1," blue","congruent",1,1,0.6754,1.0833,1,0.8,0.8,-0.4079,"condition_80cue"
40,1,50," S1-15.jpg",1,1," blue","congruent",1,1,0.5709,1.05,1,0.8,0.8,-0.4791,"condition_80cue"
40,1,51," S2-19.jpg",2,2," red","congruent",2,1,0.4517,0.7667,1,0.8,0.8,-0.315,"condition_80cue"
40,1,52," S2-19.jpg",2,2," red","congruent",2,1,0.4002,0.9667,1,0.8,0.8,-0.5665,"condition_80cue"
40,1,53," S2-19.jpg",2,1," blue","incongruent",1,0,0.6542,0.95,1,0.8,0.2,-0.2958,"condition_80cue"
40,1,54," S2-19.jpg",2,3," yellow","neutral",2,1,1.4005,0.9,1,0.5,0.5,0.5005,"condition_80cue"
40,1,55," S1-15.jpg",1,1," blue","congruent",1,1,1.2358,0.8833,1,0.8,0.8,0.3525,"condition_80cue"
40,1,56," S2-19.jpg",2,3," yellow","neutral",2,1,1.6017,1.1,1,0.5,0.5,0.5017,"condition_80cue"
40,1,57," S1-15.jpg",1,1," blue","congruent",1,1,1.4483,0.95,1,0.8,0.8,0.4983,"condition_80cue"
40,1,58," S2-19.jpg",2,3," yellow","neutral",2,1,1.4482,0.8,1,0.5,0.5,0.6482,"condition_80cue"
40,1,59," S1-15.jpg",1,3," yellow","neutral",1,1,1.3187,0.7667,1,0.5,0.5,0.552,"condition_80cue"
40,1,60," S1-15.jpg",1,1," blue","congruent",1,1,1.5067,0.85,1,0.8,0.8,0.6567,"condition_80cue"
40,1,61," S1-15.jpg",1,1," blue","congruent",1,1,1.3187,0.8,1,0.8,0.8,0.5187,"condition_80cue"
40,1,62," S1-15.jpg",1,2," red","incongruent",1,1,1.2835,0.8,1,0.8,0.2,0.4835,"condition_80cue"
40,1,63," S2-19.jpg",2,2," red","congruent",2,1,1.366,0.8833,1,0.8,0.8,0.4827,"condition_80cue"
40,1,64," S1-15.jpg",1,1," blue","congruent",1,1,1.8135,1.1833,1,0.8,0.8,0.6302,"condition_80cue"
40,1,65," S2-19.jpg",2,2," red","congruent",2,1,0.5718,1.1333,1,0.8,0.8,-0.5615,"condition_80cue"
40,1,66," S1-15.jpg",1,3," yellow","neutral",2,0,0.8258,0.9,1,0.5,0.5,-0.0742,"condition_80cue"
40,1,67," S1-15.jpg",1,3," yellow","neutral",1,1,1.4723,0.8667,1,0.5,0.5,0.6056,"condition_80cue"
40,1,68," S1-15.jpg",1,1," blue","congruent",1,1,0.8287,1.2,1,0.8,0.8,-0.3713,"condition_80cue"
40,1,69," S1-15.jpg",1,1," blue","congruent",2,0,1.0309,0.8,1,0.8,0.8,0.2309,"condition_80cue"
40,1,70," S1-15.jpg",1,1," blue","congruent",1,1,1.4479,0.9833,1,0.8,0.8,0.4646,"condition_80cue"
40,1,71," S2-19.jpg",2,3," yellow","neutral",2,1,1.4839,0.95,1,0.5,0.5,0.5339,"condition_80cue"
40,1,72," S1-15.jpg",1,1," blue","congruent",1,1,0.8019,0.75,1,0.8,0.8,0.0518999999999999,"condition_80cue"
40,1,73," S1-15.jpg",1,1," blue","congruent",1,1,0.6241,0.9167,1,0.8,0.8,-0.2926,"condition_80cue"
40,1,74," S1-15.jpg",1,1," blue","congruent",2,0,0.708,0.8667,1,0.8,0.8,-0.1587,"condition_80cue"
40,1,75," S2-19.jpg",2,2," red","congruent",2,1,0.6391,0.8333,1,0.8,0.8,-0.1942,"condition_80cue"
40,1,76," S2-19.jpg",2,3," yellow","neutral",2,1,0.8943,0.75,1,0.5,0.5,0.1443,"condition_80cue"
40,1,77," S1-15.jpg",1,3," yellow","neutral",2,0,0.695,0.8,1,0.5,0.5,-0.105,"condition_80cue"
40,1,78," S1-15.jpg",1,3," yellow","neutral",2,0,0.4518,0.8667,1,0.5,0.5,-0.4149,"condition_80cue"
40,1,79," S1-15.jpg",1,3," yellow","neutral",1,1,1.2611,0.7667,1,0.5,0.5,0.4944,"condition_80cue"
40,1,80," S1-15.jpg",1,1," blue","congruent",1,1,1.5664,0.9833,1,0.8,0.8,0.5831,"condition_80cue"
40,1,81," S2-19.jpg",2,2," red","congruent",2,1,0.7949,0.8333,1,0.8,0.8,-0.0384,"condition_80cue"
40,1,82," S2-19.jpg",2,2," red","congruent",2,1,0.9177,0.8167,1,0.8,0.8,0.101,"condition_80cue"
40,1,83," S2-19.jpg",2,2," red","congruent",2,1,0.6806,0.8333,1,0.8,0.8,-0.1527,"condition_80cue"
40,1,84," S2-19.jpg",2,2," red","congruent",2,1,0.6374,0.8333,1,0.8,0.8,-0.1959,"condition_80cue"
40,1,85," S1-15.jpg",1,3," yellow","neutral",2,0,0.5011,1.0167,1,0.5,0.5,-0.5156,"condition_80cue"
40,1,86," S1-15.jpg",1,2," red","incongruent",2,0,0.5121,0.8167,1,0.8,0.2,-0.3046,"condition_80cue"
40,1,87," S1-15.jpg",1,1," blue","congruent",1,1,0.6531,0.85,1,0.8,0.8,-0.1969,"condition_80cue"
40,1,88," S2-19.jpg",2,3," yellow","neutral",2,1,1.8008,1.0333,1,0.5,0.5,0.7675,"condition_80cue"
40,1,89," S2-19.jpg",2,2," red","congruent",2,1,1.531,0.8,1,0.8,0.8,0.731,"condition_80cue"
40,1,90," S1-15.jpg",1,1," blue","congruent",1,1,1.2987,0.8,1,0.8,0.8,0.4987,"condition_80cue"
41,1,1," S2-19.jpg",2,2," yellow","congruent",NA,0,NA,0.7833,1,0.8,0.8,NA,"condition_80cue"
41,1,2," S2-19.jpg",2,3," blue","neutral",2,1,1.8583,1.0833,1,0.5,0.5,0.775,"condition_80cue"
41,1,3," S2-19.jpg",2,1," red","incongruent",2,1,1.5004,0.9333,1,0.8,0.2,0.5671,"condition_80cue"
41,1,4," S1-15.jpg",1,1," red","congruent",1,1,1.4384,0.7833,1,0.8,0.8,0.6551,"condition_80cue"
41,1,5," S1-15.jpg",1,1," red","congruent",1,1,2.6919,1.5,1,0.8,0.8,1.1919,"condition_80cue"
41,1,6," S1-15.jpg",1,3," blue","neutral",1,1,1.5447,0.8,1,0.5,0.5,0.7447,"condition_80cue"
41,1,7," S2-19.jpg",2,3," blue","neutral",2,1,1.2283,0.7667,1,0.5,0.5,0.4616,"condition_80cue"
41,1,8," S1-15.jpg",1,1," red","congruent",2,0,0.366,0.85,1,0.8,0.8,-0.484,"condition_80cue"
41,1,9," S1-15.jpg",1,2," yellow","incongruent",1,1,1.7091,0.8,1,0.8,0.2,0.9091,"condition_80cue"
41,1,10," S2-19.jpg",2,3," blue","neutral",2,1,1.7068,1.0167,1,0.5,0.5,0.6901,"condition_80cue"
41,1,11," S2-19.jpg",2,2," yellow","congruent",NA,0,NA,0.8833,1,0.8,0.8,NA,"condition_80cue"
41,1,12," S2-19.jpg",2,1," red","incongruent",2,1,1.4106,0.8833,1,0.8,0.2,0.5273,"condition_80cue"
41,1,13," S2-19.jpg",2,3," blue","neutral",2,1,1.4594,0.9167,1,0.5,0.5,0.5427,"condition_80cue"
41,1,14," S1-15.jpg",1,3," blue","neutral",1,1,1.7314,0.9333,1,0.5,0.5,0.7981,"condition_80cue"
41,1,15," S2-19.jpg",2,3," blue","neutral",2,1,1.4596,0.7667,1,0.5,0.5,0.6929,"condition_80cue"
41,1,16," S2-19.jpg",2,2," yellow","congruent",2,1,1.3309,0.75,1,0.8,0.8,0.5809,"condition_80cue"
41,1,17," S1-15.jpg",1,1," red","congruent",1,1,1.4136,0.9,1,0.8,0.8,0.5136,"condition_80cue"
41,1,18," S2-19.jpg",2,2," yellow","congruent",2,1,1.3655,0.7833,1,0.8,0.8,0.5822,"condition_80cue"
41,1,19," S2-19.jpg",2,2," yellow","congruent",2,1,1.4829,0.8667,1,0.8,0.8,0.6162,"condition_80cue"
41,1,20," S2-19.jpg",2,2," yellow","congruent",2,1,1.4602,0.9167,1,0.8,0.8,0.5435,"condition_80cue"
41,1,21," S2-19.jpg",2,2," yellow","congruent",2,1,0.7867,1,1,0.8,0.8,-0.2133,"condition_80cue"
41,1,22," S2-19.jpg",2,2," yellow","congruent",2,1,0.7875,0.95,1,0.8,0.8,-0.1625,"condition_80cue"
41,1,23," S1-15.jpg",1,1," red","congruent",1,1,1.0365,0.8,1,0.8,0.8,0.2365,"condition_80cue"
41,1,24," S2-19.jpg",2,2," yellow","congruent",1,0,0.8406,0.85,1,0.8,0.8,-0.00939999999999996,"condition_80cue"
41,1,25," S1-15.jpg",1,2," yellow","incongruent",2,0,1.2483,0.7833,1,0.8,0.2,0.465,"condition_80cue"
41,1,26," S1-15.jpg",1,1," red","congruent",1,1,1.4365,0.8667,1,0.8,0.8,0.5698,"condition_80cue"
41,1,27," S1-15.jpg",1,1," red","congruent",1,1,1.6478,1.05,1,0.8,0.8,0.5978,"condition_80cue"
41,1,28," S1-15.jpg",1,1," red","congruent",1,1,1.4838,0.8,1,0.8,0.8,0.6838,"condition_80cue"
41,1,29," S2-19.jpg",2,3," blue","neutral",2,1,1.3773,0.8,1,0.5,0.5,0.5773,"condition_80cue"
41,1,30," S1-15.jpg",1,1," red","congruent",1,1,1.2598,0.8,1,0.8,0.8,0.4598,"condition_80cue"
41,1,31," S1-15.jpg",1,1," red","congruent",1,1,0.7393,1,1,0.8,0.8,-0.2607,"condition_80cue"
41,1,32," S2-19.jpg",2,2," yellow","congruent",2,1,0.9173,0.8333,1,0.8,0.8,0.084,"condition_80cue"
41,1,33," S1-15.jpg",1,2," yellow","incongruent",2,0,0.6511,0.8833,1,0.8,0.2,-0.2322,"condition_80cue"
41,1,34," S1-15.jpg",1,3," blue","neutral",1,1,1.166,0.8167,1,0.5,0.5,0.3493,"condition_80cue"
41,1,35," S1-15.jpg",1,1," red","congruent",2,0,1.1429,0.7667,1,0.8,0.8,0.3762,"condition_80cue"
41,1,36," S2-19.jpg",2,3," blue","neutral",2,1,1.5062,0.75,1,0.5,0.5,0.7562,"condition_80cue"
41,1,37," S2-19.jpg",2,2," yellow","congruent",2,1,1.5073,0.8333,1,0.8,0.8,0.674,"condition_80cue"
41,1,38," S1-15.jpg",1,3," blue","neutral",2,0,1.6011,1.1167,1,0.5,0.5,0.4844,"condition_80cue"
41,1,39," S1-15.jpg",1,1," red","congruent",1,1,1.4827,0.8,1,0.8,0.8,0.6827,"condition_80cue"
41,1,40," S1-15.jpg",1,1," red","congruent",1,1,1.3311,0.8167,1,0.8,0.8,0.5144,"condition_80cue"
41,1,41," S1-15.jpg",1,1," red","congruent",1,1,1.2256,0.7667,1,0.8,0.8,0.4589,"condition_80cue"
41,1,42," S1-15.jpg",1,1," red","congruent",1,1,0.5247,0.9667,1,0.8,0.8,-0.442,"condition_80cue"
41,1,43," S1-15.jpg",1,3," blue","neutral",2,0,0.871,0.7667,1,0.5,0.5,0.1043,"condition_80cue"
41,1,44," S1-15.jpg",1,3," blue","neutral",1,1,1.3552,0.7667,1,0.5,0.5,0.5885,"condition_80cue"
41,1,45," S2-19.jpg",2,1," red","incongruent",1,0,0.8225,0.8167,1,0.8,0.2,0.00580000000000003,"condition_80cue"
41,1,46," S2-19.jpg",2,2," yellow","congruent",2,1,1.3431,0.8667,1,0.8,0.8,0.4764,"condition_80cue"
41,1,47," S1-15.jpg",1,3," blue","neutral",1,1,1.3779,0.8667,1,0.5,0.5,0.5112,"condition_80cue"
41,1,48," S1-15.jpg",1,1," red","congruent",1,1,1.4721,0.9333,1,0.8,0.8,0.5388,"condition_80cue"
41,1,49," S1-15.jpg",1,3," blue","neutral",1,1,1.5182,0.9,1,0.5,0.5,0.6182,"condition_80cue"
41,1,50," S1-15.jpg",1,3," blue","neutral",1,1,1.3781,0.8833,1,0.5,0.5,0.4948,"condition_80cue"
41,1,51," S1-15.jpg",1,3," blue","neutral",1,1,1.6828,1.2,1,0.5,0.5,0.4828,"condition_80cue"
41,1,52," S1-15.jpg",1,2," yellow","incongruent",2,0,1.1779,0.8333,1,0.8,0.2,0.3446,"condition_80cue"
41,1,53," S2-19.jpg",2,3," blue","neutral",2,1,1.6954,1.0167,1,0.5,0.5,0.6787,"condition_80cue"
41,1,54," S2-19.jpg",2,3," blue","neutral",2,1,1.3308,0.8167,1,0.5,0.5,0.5141,"condition_80cue"
41,1,55," S1-15.jpg",1,3," blue","neutral",1,1,1.6837,0.9833,1,0.5,0.5,0.7004,"condition_80cue"
41,1,56," S2-19.jpg",2,3," blue","neutral",2,1,1.6365,0.9833,1,0.5,0.5,0.6532,"condition_80cue"
41,1,57," S1-15.jpg",1,3," blue","neutral",1,1,1.3538,0.7667,1,0.5,0.5,0.5871,"condition_80cue"
41,1,58," S1-15.jpg",1,1," red","congruent",1,1,1.6713,0.95,1,0.8,0.8,0.7213,"condition_80cue"
41,1,59," S1-15.jpg",1,1," red","congruent",2,0,0.8874,0.9,1,0.8,0.8,-0.0126000000000001,"condition_80cue"
41,1,60," S1-15.jpg",1,2," yellow","incongruent",2,0,0.906,0.85,1,0.8,0.2,0.056,"condition_80cue"
41,1,61," S1-15.jpg",1,1," red","congruent",1,1,1.4603,1.0333,1,0.8,0.8,0.427,"condition_80cue"
41,1,62," S1-15.jpg",1,1," red","congruent",1,1,1.1433,0.8167,1,0.8,0.8,0.3266,"condition_80cue"
41,1,63," S2-19.jpg",2,2," yellow","congruent",2,1,1.5895,0.8333,1,0.8,0.8,0.7562,"condition_80cue"
41,1,64," S2-19.jpg",2,2," yellow","congruent",2,1,1.1187,0.8333,1,0.8,0.8,0.2854,"condition_80cue"
41,1,65," S2-19.jpg",2,3," blue","neutral",2,1,1.6134,1.0667,1,0.5,0.5,0.5467,"condition_80cue"
41,1,66," S2-19.jpg",2,2," yellow","congruent",2,1,1.495,0.8333,1,0.8,0.8,0.6617,"condition_80cue"
41,1,67," S1-15.jpg",1,3," blue","neutral",1,1,1.343,0.8,1,0.5,0.5,0.543,"condition_80cue"
41,1,68," S1-15.jpg",1,1," red","congruent",1,1,1.2725,0.85,1,0.8,0.8,0.4225,"condition_80cue"
41,1,69," S2-19.jpg",2,2," yellow","congruent",2,1,0.8812,0.7667,1,0.8,0.8,0.1145,"condition_80cue"
41,1,70," S2-19.jpg",2,1," red","incongruent",1,0,0.8598,1.1833,1,0.8,0.2,-0.3235,"condition_80cue"
41,1,71," S2-19.jpg",2,3," blue","neutral",1,0,0.9956,1.15,1,0.5,0.5,-0.1544,"condition_80cue"
41,1,72," S1-15.jpg",1,1," red","congruent",1,1,2.2127,1.5,1,0.8,0.8,0.7127,"condition_80cue"
41,1,73," S2-19.jpg",2,1," red","incongruent",2,1,1.5302,0.95,1,0.8,0.2,0.5802,"condition_80cue"
41,1,74," S1-15.jpg",1,3," blue","neutral",1,1,1.6963,0.9167,1,0.5,0.5,0.7796,"condition_80cue"
41,1,75," S1-15.jpg",1,2," yellow","incongruent",1,1,1.5068,0.8667,1,0.8,0.2,0.6401,"condition_80cue"
41,1,76," S2-19.jpg",2,2," yellow","congruent",2,1,1.6003,0.9667,1,0.8,0.8,0.6336,"condition_80cue"
41,1,77," S2-19.jpg",2,2," yellow","congruent",2,1,0.8535,0.85,1,0.8,0.8,0.00350000000000006,"condition_80cue"
41,1,78," S2-19.jpg",2,3," blue","neutral",2,1,1.4831,0.8167,1,0.5,0.5,0.6664,"condition_80cue"
41,1,79," S2-19.jpg",2,2," yellow","congruent",2,1,1.5191,1.0333,1,0.8,0.8,0.4858,"condition_80cue"
41,1,80," S1-15.jpg",1,3," blue","neutral",1,1,1.9195,1.1667,1,0.5,0.5,0.7528,"condition_80cue"
41,1,81," S2-19.jpg",2,2," yellow","congruent",2,1,1.6137,0.9,1,0.8,0.8,0.7137,"condition_80cue"
41,1,82," S1-15.jpg",1,1," red","congruent",1,1,1.4833,0.7833,1,0.8,0.8,0.7,"condition_80cue"
41,1,83," S2-19.jpg",2,2," yellow","congruent",2,1,1.6708,1.1,1,0.8,0.8,0.5708,"condition_80cue"
41,1,84," S2-19.jpg",2,3," blue","neutral",2,1,1.5661,0.8167,1,0.5,0.5,0.7494,"condition_80cue"
41,1,85," S2-19.jpg",2,2," yellow","congruent",2,1,1.7899,1.1333,1,0.8,0.8,0.6566,"condition_80cue"
41,1,86," S2-19.jpg",2,3," blue","neutral",1,0,1.001,0.7833,1,0.5,0.5,0.2177,"condition_80cue"
41,1,87," S2-19.jpg",2,2," yellow","congruent",2,1,1.2923,0.7833,1,0.8,0.8,0.509,"condition_80cue"
41,1,88," S2-19.jpg",2,1," red","incongruent",2,1,1.3893,0.7667,1,0.8,0.2,0.6226,"condition_80cue"
41,1,89," S2-19.jpg",2,2," yellow","congruent",2,1,1.3419,0.7833,1,0.8,0.8,0.5586,"condition_80cue"
41,1,90," S1-15.jpg",1,1," red","congruent",2,0,0.9673,0.7833,1,0.8,0.8,0.184,"condition_80cue"
42,1,1," S2-19.jpg",1,3," purple","neutral",NA,0,NA,1.5,1,0.5,0.5,NA,"condition_80cue"
42,1,2," S2-19.jpg",1,1," orange","congruent",NA,0,NA,0.95,1,0.8,0.8,NA,"condition_80cue"
42,1,3," S2-19.jpg",1,2," green","incongruent",1,1,1.8144,0.9333,1,0.8,0.2,0.8811,"condition_80cue"
42,1,4," S2-19.jpg",1,2," green","incongruent",1,1,1.378,0.8333,1,0.8,0.2,0.5447,"condition_80cue"
42,1,5," S2-19.jpg",1,1," orange","congruent",1,1,1.365,0.8667,1,0.8,0.8,0.4983,"condition_80cue"
42,1,6," S2-19.jpg",1,3," purple","neutral",1,1,1.1919,0.8167,1,0.5,0.5,0.3752,"condition_80cue"
42,1,7," S2-19.jpg",1,1," orange","congruent",1,1,1.9559,1.5,1,0.8,0.8,0.4559,"condition_80cue"
42,1,8," S2-19.jpg",1,3," purple","neutral",1,1,1.3089,0.8833,1,0.5,0.5,0.4256,"condition_80cue"
42,1,9," S2-19.jpg",1,3," purple","neutral",1,1,1.236,0.8667,1,0.5,0.5,0.3693,"condition_80cue"
42,1,10," S1-15.jpg",2,2," green","congruent",2,1,1.3548,0.7833,1,0.8,0.8,0.5715,"condition_80cue"
42,1,11," S2-19.jpg",1,1," orange","congruent",1,1,1.6842,1.1333,1,0.8,0.8,0.5509,"condition_80cue"
42,1,12," S1-15.jpg",2,3," purple","neutral",2,1,1.4605,0.8667,1,0.5,0.5,0.5938,"condition_80cue"
42,1,13," S2-19.jpg",1,3," purple","neutral",1,1,1.3433,0.7833,1,0.5,0.5,0.56,"condition_80cue"
42,1,14," S2-19.jpg",1,2," green","incongruent",1,1,1.5319,0.8167,1,0.8,0.2,0.7152,"condition_80cue"
42,1,15," S1-15.jpg",2,1," orange","incongruent",2,1,1.3785,0.7833,1,0.8,0.2,0.5952,"condition_80cue"
42,1,16," S1-15.jpg",2,2," green","congruent",2,1,1.99,0.8,1,0.8,0.8,1.19,"condition_80cue"
42,1,17," S2-19.jpg",1,1," orange","congruent",1,1,1.2243,0.8667,1,0.8,0.8,0.3576,"condition_80cue"
42,1,18," S2-19.jpg",1,1," orange","congruent",1,1,1.6476,0.9333,1,0.8,0.8,0.7143,"condition_80cue"
42,1,19," S1-15.jpg",2,1," orange","incongruent",2,1,1.6969,1.2,1,0.8,0.2,0.4969,"condition_80cue"
42,1,20," S1-15.jpg",2,2," green","congruent",2,1,1.7658,1.1167,1,0.8,0.8,0.6491,"condition_80cue"
42,1,21," S1-15.jpg",2,2," green","congruent",2,1,1.6598,0.7667,1,0.8,0.8,0.8931,"condition_80cue"
42,1,22," S1-15.jpg",2,3," purple","neutral",2,1,1.4842,0.8,1,0.5,0.5,0.6842,"condition_80cue"
42,1,23," S2-19.jpg",1,1," orange","congruent",1,1,1.3308,0.7667,1,0.8,0.8,0.5641,"condition_80cue"
42,1,24," S2-19.jpg",1,1," orange","congruent",1,1,0.1166,1.1667,1,0.8,0.8,-1.0501,"condition_80cue"
42,1,25," S1-15.jpg",2,2," green","congruent",2,1,1.7522,1.1833,1,0.8,0.8,0.5689,"condition_80cue"
42,1,26," S1-15.jpg",2,2," green","congruent",2,1,1.3659,0.8333,1,0.8,0.8,0.5326,"condition_80cue"
42,1,27," S1-15.jpg",2,2," green","congruent",1,0,0.6515,0.9,1,0.8,0.8,-0.2485,"condition_80cue"
42,1,28," S2-19.jpg",1,1," orange","congruent",1,1,1.3552,0.9,1,0.8,0.8,0.4552,"condition_80cue"
42,1,29," S2-19.jpg",1,1," orange","congruent",2,0,0.5075,0.85,1,0.8,0.8,-0.3425,"condition_80cue"
42,1,30," S1-15.jpg",2,1," orange","incongruent",1,0,0.6886,0.8833,1,0.8,0.2,-0.1947,"condition_80cue"
42,1,31," S2-19.jpg",1,1," orange","congruent",1,1,1.6595,0.9833,1,0.8,0.8,0.6762,"condition_80cue"
42,1,32," S1-15.jpg",2,3," purple","neutral",2,1,1.8259,1.15,1,0.5,0.5,0.6759,"condition_80cue"
42,1,33," S1-15.jpg",2,2," green","congruent",1,0,0.625,0.7667,1,0.8,0.8,-0.1417,"condition_80cue"
42,1,34," S2-19.jpg",1,3," purple","neutral",2,0,0.5729,1,1,0.5,0.5,-0.4271,"condition_80cue"
42,1,35," S2-19.jpg",1,2," green","incongruent",1,1,1.707,1.0667,1,0.8,0.2,0.6403,"condition_80cue"
42,1,36," S2-19.jpg",1,3," purple","neutral",1,1,1.4131,1.0833,1,0.5,0.5,0.3298,"condition_80cue"
42,1,37," S1-15.jpg",2,2," green","congruent",2,1,0.2127,0.75,1,0.8,0.8,-0.5373,"condition_80cue"
42,1,38," S2-19.jpg",1,3," purple","neutral",2,0,0.2363,0.7667,1,0.5,0.5,-0.5304,"condition_80cue"
42,1,39," S1-15.jpg",2,1," orange","incongruent",2,1,1.3789,0.7833,1,0.8,0.2,0.5956,"condition_80cue"
42,1,40," S1-15.jpg",2,2," green","congruent",1,0,0.2565,0.85,1,0.8,0.8,-0.5935,"condition_80cue"
42,1,41," S2-19.jpg",1,3," purple","neutral",1,1,0.2679,1.0167,1,0.5,0.5,-0.7488,"condition_80cue"
42,1,42," S2-19.jpg",1,1," orange","congruent",1,1,1.5773,0.8,1,0.8,0.8,0.7773,"condition_80cue"
42,1,43," S1-15.jpg",2,2," green","congruent",2,1,0.6087,0.95,1,0.8,0.8,-0.3413,"condition_80cue"
42,1,44," S2-19.jpg",1,1," orange","congruent",2,0,0.2659,0.9,1,0.8,0.8,-0.6341,"condition_80cue"
42,1,45," S1-15.jpg",2,3," purple","neutral",2,1,1.4368,0.7833,1,0.5,0.5,0.6535,"condition_80cue"
42,1,46," S2-19.jpg",1,3," purple","neutral",1,1,1.6481,0.8167,1,0.5,0.5,0.8314,"condition_80cue"
42,1,47," S2-19.jpg",1,2," green","incongruent",1,1,1.3305,0.7667,1,0.8,0.2,0.5638,"condition_80cue"
42,1,48," S2-19.jpg",1,1," orange","congruent",1,1,1.5067,0.8667,1,0.8,0.8,0.64,"condition_80cue"
42,1,49," S1-15.jpg",2,2," green","congruent",2,1,1.261,0.9167,1,0.8,0.8,0.3443,"condition_80cue"
42,1,50," S1-15.jpg",2,3," purple","neutral",2,1,0.9528,0.9167,1,0.5,0.5,0.0361,"condition_80cue"
42,1,51," S2-19.jpg",1,1," orange","congruent",2,0,0.7492,1.0167,1,0.8,0.8,-0.2675,"condition_80cue"
42,1,52," S1-15.jpg",2,2," green","congruent",2,1,1.554,0.8,1,0.8,0.8,0.754,"condition_80cue"
42,1,53," S2-19.jpg",1,2," green","incongruent",1,1,1.483,0.7667,1,0.8,0.2,0.7163,"condition_80cue"
42,1,54," S2-19.jpg",1,3," purple","neutral",1,1,1.3304,0.8,1,0.5,0.5,0.5304,"condition_80cue"
42,1,55," S2-19.jpg",1,1," orange","congruent",1,1,1.553,0.7667,1,0.8,0.8,0.7863,"condition_80cue"
42,1,56," S1-15.jpg",2,2," green","congruent",2,1,0.1635,0.8833,1,0.8,0.8,-0.7198,"condition_80cue"
42,1,57," S2-19.jpg",1,1," orange","congruent",1,1,1.2825,0.8333,1,0.8,0.8,0.4492,"condition_80cue"
42,1,58," S2-19.jpg",1,1," orange","congruent",1,1,1.202,0.8167,1,0.8,0.8,0.3853,"condition_80cue"
42,1,59," S2-19.jpg",1,1," orange","congruent",1,1,1.5186,0.8833,1,0.8,0.8,0.6353,"condition_80cue"
42,1,60," S1-15.jpg",2,3," purple","neutral",2,1,1.4483,0.7833,1,0.5,0.5,0.665,"condition_80cue"
42,1,61," S1-15.jpg",2,3," purple","neutral",2,1,1.6127,1.1,1,0.5,0.5,0.5127,"condition_80cue"
42,1,62," S1-15.jpg",2,2," green","congruent",2,1,1.6825,1,1,0.8,0.8,0.6825,"condition_80cue"
42,1,63," S1-15.jpg",2,2," green","congruent",2,1,1.695,1.05,1,0.8,0.8,0.645,"condition_80cue"
42,1,64," S2-19.jpg",1,3," purple","neutral",2,0,1.3422,0.9,1,0.5,0.5,0.4422,"condition_80cue"
42,1,65," S1-15.jpg",2,1," orange","incongruent",2,1,1.7787,0.9667,1,0.8,0.2,0.812,"condition_80cue"
42,1,66," S2-19.jpg",1,3," purple","neutral",1,1,1.847,0.7667,1,0.5,0.5,1.0803,"condition_80cue"
42,1,67," S1-15.jpg",2,3," purple","neutral",2,1,2.0712,0.8,1,0.5,0.5,1.2712,"condition_80cue"
42,1,68," S1-15.jpg",2,3," purple","neutral",2,1,1.3189,0.7667,1,0.5,0.5,0.5522,"condition_80cue"
42,1,69," S1-15.jpg",2,3," purple","neutral",2,1,1.3896,0.85,1,0.5,0.5,0.5396,"condition_80cue"
42,1,70," S1-15.jpg",2,3," purple","neutral",1,0,0.2587,0.85,1,0.5,0.5,-0.5913,"condition_80cue"
42,1,71," S1-15.jpg",2,3," purple","neutral",2,1,1.2607,0.8,1,0.5,0.5,0.4607,"condition_80cue"
42,1,72," S1-15.jpg",2,3," purple","neutral",2,1,1.2732,0.85,1,0.5,0.5,0.4232,"condition_80cue"
42,1,73," S1-15.jpg",2,2," green","congruent",2,1,1.5188,0.9333,1,0.8,0.8,0.5855,"condition_80cue"
42,1,74," S1-15.jpg",2,1," orange","incongruent",2,1,1.1779,0.7833,1,0.8,0.2,0.3946,"condition_80cue"
42,1,75," S1-15.jpg",2,2," green","congruent",2,1,1.5422,1.0333,1,0.8,0.8,0.5089,"condition_80cue"
42,1,76," S2-19.jpg",1,1," orange","congruent",1,1,1.6594,0.95,1,0.8,0.8,0.7094,"condition_80cue"
42,1,77," S1-15.jpg",2,3," purple","neutral",1,0,0.2207,0.9167,1,0.5,0.5,-0.696,"condition_80cue"
42,1,78," S1-15.jpg",2,2," green","congruent",2,1,1.4139,0.8167,1,0.8,0.8,0.5972,"condition_80cue"
42,1,79," S2-19.jpg",1,1," orange","congruent",1,1,0.5824,0.7833,1,0.8,0.8,-0.2009,"condition_80cue"
42,1,80," S1-15.jpg",2,3," purple","neutral",2,1,1.39,0.8333,1,0.5,0.5,0.5567,"condition_80cue"
42,1,81," S2-19.jpg",1,3," purple","neutral",1,1,1.4129,0.8167,1,0.5,0.5,0.5962,"condition_80cue"
42,1,82," S1-15.jpg",2,2," green","congruent",2,1,1.6239,0.9667,1,0.8,0.8,0.6572,"condition_80cue"
42,1,83," S1-15.jpg",2,2," green","congruent",2,1,1.4251,0.8167,1,0.8,0.8,0.6084,"condition_80cue"
42,1,84," S1-15.jpg",2,2," green","congruent",2,1,1.4243,0.8333,1,0.8,0.8,0.591,"condition_80cue"
42,1,85," S1-15.jpg",2,2," green","congruent",2,1,1.2826,0.7833,1,0.8,0.8,0.4993,"condition_80cue"
42,1,86," S2-19.jpg",1,1," orange","congruent",1,1,0.2993,0.8333,1,0.8,0.8,-0.534,"condition_80cue"
42,1,87," S2-19.jpg",1,1," orange","congruent",1,1,1.4717,1.0333,1,0.8,0.8,0.4384,"condition_80cue"
42,1,88," S1-15.jpg",2,2," green","congruent",2,1,1.2605,0.8,1,0.8,0.8,0.4605,"condition_80cue"
42,1,89," S2-19.jpg",1,1," orange","congruent",2,0,0.1377,0.75,1,0.8,0.8,-0.6123,"condition_80cue"
42,1,90," S2-19.jpg",1,3," purple","neutral",1,1,1.7652,0.9833,1,0.5,0.5,0.7819,"condition_80cue"
43,1,1," S1-15.jpg",2,3," blue","neutral",NA,0,NA,0.8667,1,0.5,0.5,NA,"condition_80cue"
43,1,2," S1-15.jpg",2,1," red","incongruent",2,1,1.4352,0.8167,1,0.8,0.2,0.6185,"condition_80cue"
43,1,3," S2-19.jpg",1,3," blue","neutral",2,0,1.2,0.8167,1,0.5,0.5,0.3833,"condition_80cue"
43,1,4," S2-19.jpg",1,1," red","congruent",1,1,1.601,0.7833,1,0.8,0.8,0.8177,"condition_80cue"
43,1,5," S2-19.jpg",1,1," red","congruent",1,1,1.4127,0.9,1,0.8,0.8,0.5127,"condition_80cue"
43,1,6," S2-19.jpg",1,3," blue","neutral",1,1,1.5308,0.9333,1,0.5,0.5,0.5975,"condition_80cue"
43,1,7," S1-15.jpg",2,1," red","incongruent",2,1,1.636,0.9833,1,0.8,0.2,0.6527,"condition_80cue"
43,1,8," S2-19.jpg",1,1," red","congruent",2,0,1.6139,1.0667,1,0.8,0.8,0.5472,"condition_80cue"
43,1,9," S1-15.jpg",2,3," blue","neutral",2,1,1.6131,0.8833,1,0.5,0.5,0.7298,"condition_80cue"
43,1,10," S1-15.jpg",2,2," yellow","congruent",2,1,1.5773,0.9,1,0.8,0.8,0.6773,"condition_80cue"
43,1,11," S2-19.jpg",1,2," yellow","incongruent",1,1,1.6597,0.8667,1,0.8,0.2,0.793,"condition_80cue"
43,1,12," S2-19.jpg",1,2," yellow","incongruent",1,1,1.4831,0.7833,1,0.8,0.2,0.6998,"condition_80cue"
43,1,13," S1-15.jpg",2,3," blue","neutral",2,1,2.1297,1.5,1,0.5,0.5,0.6297,"condition_80cue"
43,1,14," S1-15.jpg",2,3," blue","neutral",2,1,1.4128,0.7667,1,0.5,0.5,0.6461,"condition_80cue"
43,1,15," S1-15.jpg",2,2," yellow","congruent",2,1,1.695,0.85,1,0.8,0.8,0.845,"condition_80cue"
43,1,16," S1-15.jpg",2,2," yellow","congruent",2,1,1.6128,1,1,0.8,0.8,0.6128,"condition_80cue"
43,1,17," S1-15.jpg",2,2," yellow","congruent",2,1,1.402,0.85,1,0.8,0.8,0.552,"condition_80cue"
43,1,18," S2-19.jpg",1,1," red","congruent",1,1,1.5303,0.9333,1,0.8,0.8,0.597,"condition_80cue"
43,1,19," S2-19.jpg",1,3," blue","neutral",1,1,1.3301,0.85,1,0.5,0.5,0.4801,"condition_80cue"
43,1,20," S2-19.jpg",1,3," blue","neutral",1,1,1.2015,0.7667,1,0.5,0.5,0.4348,"condition_80cue"
43,1,21," S2-19.jpg",1,1," red","congruent",1,1,1.2487,0.7667,1,0.8,0.8,0.482,"condition_80cue"
43,1,22," S1-15.jpg",2,3," blue","neutral",2,1,1.5424,0.8667,1,0.5,0.5,0.6757,"condition_80cue"
43,1,23," S2-19.jpg",1,1," red","congruent",1,1,1.8249,1.2,1,0.8,0.8,0.6249,"condition_80cue"
43,1,24," S1-15.jpg",2,2," yellow","congruent",2,1,1.801,0.75,1,0.8,0.8,1.051,"condition_80cue"
43,1,25," S2-19.jpg",1,2," yellow","incongruent",1,1,1.6249,0.95,1,0.8,0.2,0.6749,"condition_80cue"
43,1,26," S1-15.jpg",2,3," blue","neutral",2,1,1.6015,0.8,1,0.5,0.5,0.8015,"condition_80cue"
43,1,27," S1-15.jpg",2,1," red","incongruent",2,1,1.8474,1.1,1,0.8,0.2,0.7474,"condition_80cue"
43,1,28," S1-15.jpg",2,2," yellow","congruent",2,1,1.529,0.8,1,0.8,0.8,0.729,"condition_80cue"
43,1,29," S1-15.jpg",2,3," blue","neutral",2,1,1.4006,0.7833,1,0.5,0.5,0.6173,"condition_80cue"
43,1,30," S2-19.jpg",1,1," red","congruent",1,1,1.4847,0.8167,1,0.8,0.8,0.668,"condition_80cue"
43,1,31," S2-19.jpg",1,1," red","congruent",1,1,2.1423,1.0333,1,0.8,0.8,1.109,"condition_80cue"
43,1,32," S2-19.jpg",1,1," red","congruent",1,1,1.4249,0.8667,1,0.8,0.8,0.5582,"condition_80cue"
43,1,33," S1-15.jpg",2,2," yellow","congruent",2,1,2.4236,1.05,1,0.8,0.8,1.3736,"condition_80cue"
43,1,34," S1-15.jpg",2,2," yellow","congruent",2,1,1.7899,1.1667,1,0.8,0.8,0.6232,"condition_80cue"
43,1,35," S2-19.jpg",1,2," yellow","incongruent",1,1,1.907,1.1333,1,0.8,0.2,0.7737,"condition_80cue"
43,1,36," S2-19.jpg",1,1," red","congruent",1,1,1.554,0.7833,1,0.8,0.8,0.7707,"condition_80cue"
43,1,37," S1-15.jpg",2,2," yellow","congruent",2,1,1.5776,0.8667,1,0.8,0.8,0.7109,"condition_80cue"
43,1,38," S2-19.jpg",1,2," yellow","incongruent",1,1,1.5549,0.8,1,0.8,0.2,0.7549,"condition_80cue"
43,1,39," S2-19.jpg",1,3," blue","neutral",1,1,1.413,0.8333,1,0.5,0.5,0.5797,"condition_80cue"
43,1,40," S1-15.jpg",2,2," yellow","congruent",2,1,1.4601,0.9167,1,0.8,0.8,0.5434,"condition_80cue"
43,1,41," S2-19.jpg",1,1," red","congruent",1,1,1.718,1.0333,1,0.8,0.8,0.6847,"condition_80cue"
43,1,42," S2-19.jpg",1,1," red","congruent",1,1,1.7769,0.8333,1,0.8,0.8,0.9436,"condition_80cue"
43,1,43," S1-15.jpg",2,3," blue","neutral",NA,0,NA,0.8333,1,0.5,0.5,NA,"condition_80cue"
43,1,44," S2-19.jpg",1,3," blue","neutral",1,1,1.4137,0.8,1,0.5,0.5,0.6137,"condition_80cue"
43,1,45," S2-19.jpg",1,1," red","congruent",1,1,1.5193,0.7833,1,0.8,0.8,0.736,"condition_80cue"
43,1,46," S1-15.jpg",2,2," yellow","congruent",2,1,1.3537,0.8167,1,0.8,0.8,0.537,"condition_80cue"
43,1,47," S2-19.jpg",1,1," red","congruent",1,1,1.7185,0.9333,1,0.8,0.8,0.7852,"condition_80cue"
43,1,48," S2-19.jpg",1,2," yellow","incongruent",1,1,1.484,0.7833,1,0.8,0.2,0.7007,"condition_80cue"
43,1,49," S2-19.jpg",1,3," blue","neutral",2,0,2.3188,0.8167,1,0.5,0.5,1.5021,"condition_80cue"
43,1,50," S1-15.jpg",2,3," blue","neutral",2,1,1.7896,1.0167,1,0.5,0.5,0.7729,"condition_80cue"
43,1,51," S2-19.jpg",1,3," blue","neutral",1,1,1.6714,1.0833,1,0.5,0.5,0.5881,"condition_80cue"
43,1,52," S1-15.jpg",2,2," yellow","congruent",NA,0,NA,0.85,1,0.8,0.8,NA,"condition_80cue"
43,1,53," S1-15.jpg",2,3," blue","neutral",2,1,1.6834,1.15,1,0.5,0.5,0.5334,"condition_80cue"
43,1,54," S1-15.jpg",2,2," yellow","congruent",2,1,1.5656,0.9833,1,0.8,0.8,0.5823,"condition_80cue"
43,1,55," S2-19.jpg",1,1," red","congruent",1,1,1.3779,0.8833,1,0.8,0.8,0.4946,"condition_80cue"
43,1,56," S1-15.jpg",2,2," yellow","congruent",2,1,1.4361,0.75,1,0.8,0.8,0.6861,"condition_80cue"
43,1,57," S2-19.jpg",1,1," red","congruent",1,1,1.2843,0.8167,1,0.8,0.8,0.4676,"condition_80cue"
43,1,58," S1-15.jpg",2,2," yellow","congruent",2,1,1.4248,0.7833,1,0.8,0.8,0.6415,"condition_80cue"
43,1,59," S1-15.jpg",2,2," yellow","congruent",2,1,1.5774,0.8833,1,0.8,0.8,0.6941,"condition_80cue"
43,1,60," S1-15.jpg",2,3," blue","neutral",2,1,1.7185,0.8833,1,0.5,0.5,0.8352,"condition_80cue"
43,1,61," S1-15.jpg",2,2," yellow","congruent",2,1,1.5058,0.9,1,0.8,0.8,0.6058,"condition_80cue"
43,1,62," S1-15.jpg",2,3," blue","neutral",2,1,2.2701,1.5,1,0.5,0.5,0.7701,"condition_80cue"
43,1,63," S1-15.jpg",2,2," yellow","congruent",2,1,1.4369,0.8167,1,0.8,0.8,0.6202,"condition_80cue"
43,1,64," S1-15.jpg",2,1," red","incongruent",2,1,1.2836,0.7667,1,0.8,0.2,0.5169,"condition_80cue"
43,1,65," S1-15.jpg",2,2," yellow","congruent",2,1,1.6949,0.95,1,0.8,0.8,0.7449,"condition_80cue"
43,1,66," S2-19.jpg",1,3," blue","neutral",1,1,1.3432,0.8,1,0.5,0.5,0.5432,"condition_80cue"
43,1,67," S1-15.jpg",2,3," blue","neutral",2,1,1.6125,0.8,1,0.5,0.5,0.8125,"condition_80cue"
43,1,68," S1-15.jpg",2,2," yellow","congruent",2,1,1.6477,0.7833,1,0.8,0.8,0.8644,"condition_80cue"
43,1,69," S2-19.jpg",1,1," red","congruent",1,1,1.6964,0.9667,1,0.8,0.8,0.7297,"condition_80cue"
43,1,70," S1-15.jpg",2,1," red","incongruent",2,1,1.6598,0.9,1,0.8,0.2,0.7598,"condition_80cue"
43,1,71," S2-19.jpg",1,1," red","congruent",1,1,1.7542,1.1167,1,0.8,0.8,0.6375,"condition_80cue"
43,1,72," S1-15.jpg",2,2," yellow","congruent",2,1,1.6717,0.9667,1,0.8,0.8,0.705,"condition_80cue"
43,1,73," S2-19.jpg",1,1," red","congruent",1,1,1.2714,0.8,1,0.8,0.8,0.4714,"condition_80cue"
43,1,74," S2-19.jpg",1,3," blue","neutral",1,1,1.2369,0.7667,1,0.5,0.5,0.4702,"condition_80cue"
43,1,75," S2-19.jpg",1,3," blue","neutral",1,1,1.2132,0.8333,1,0.5,0.5,0.3799,"condition_80cue"
43,1,76," S1-15.jpg",2,3," blue","neutral",2,1,1.5773,0.95,1,0.5,0.5,0.6273,"condition_80cue"
43,1,77," S1-15.jpg",2,2," yellow","congruent",2,1,1.7537,1.0167,1,0.8,0.8,0.737,"condition_80cue"
43,1,78," S2-19.jpg",1,1," red","congruent",1,1,1.1542,0.7667,1,0.8,0.8,0.3875,"condition_80cue"
43,1,79," S2-19.jpg",1,3," blue","neutral",1,1,1.1773,0.7667,1,0.5,0.5,0.4106,"condition_80cue"
43,1,80," S2-19.jpg",1,1," red","congruent",1,1,1.4723,0.7833,1,0.8,0.8,0.689,"condition_80cue"
43,1,81," S2-19.jpg",1,1," red","congruent",1,1,1.6358,1.1833,1,0.8,0.8,0.4525,"condition_80cue"
43,1,82," S2-19.jpg",1,3," blue","neutral",1,1,1.3545,0.8333,1,0.5,0.5,0.5212,"condition_80cue"
43,1,83," S1-15.jpg",2,2," yellow","congruent",1,0,1.3306,0.7667,1,0.8,0.8,0.5639,"condition_80cue"
43,1,84," S2-19.jpg",1,3," blue","neutral",1,1,1.5655,0.9167,1,0.5,0.5,0.6488,"condition_80cue"
43,1,85," S2-19.jpg",1,1," red","congruent",1,1,1.3529,0.8333,1,0.8,0.8,0.5196,"condition_80cue"
43,1,86," S2-19.jpg",1,3," blue","neutral",1,1,1.5538,1,1,0.5,0.5,0.5538,"condition_80cue"
43,1,87," S2-19.jpg",1,1," red","congruent",1,1,1.2714,0.8,1,0.8,0.8,0.4714,"condition_80cue"
43,1,88," S1-15.jpg",2,1," red","incongruent",2,1,1.6604,0.85,1,0.8,0.2,0.8104,"condition_80cue"
43,1,89," S1-15.jpg",2,2," yellow","congruent",2,1,1.4254,0.9167,1,0.8,0.8,0.5087,"condition_80cue"
43,1,90," S1-15.jpg",2,3," blue","neutral",2,1,1.1659,0.7667,1,0.5,0.5,0.3992,"condition_80cue"
44,1,1," S4-20.jpg",2,3," blue","neutral",1,0,1.6472,0.8333,1,0.5,0.5,0.8139,"condition_80cue"
44,1,2," S3-12.jpg",1,3," blue","neutral",1,1,1.8311,0.9,1,0.5,0.5,0.9311,"condition_80cue"
44,1,3," S4-20.jpg",2,3," blue","neutral",2,1,1.3921,0.75,1,0.5,0.5,0.6421,"condition_80cue"
44,1,4," S3-12.jpg",1,3," blue","neutral",1,1,2.0736,0.8167,1,0.5,0.5,1.2569,"condition_80cue"
44,1,5," S4-20.jpg",2,3," blue","neutral",2,1,1.3521,1.0833,1,0.5,0.5,0.2688,"condition_80cue"
44,1,6," S4-20.jpg",2,2," yellow","congruent",2,1,1.492,0.85,1,0.8,0.8,0.642,"condition_80cue"
44,1,7," S4-20.jpg",2,2," yellow","congruent",2,1,1.5077,0.8167,1,0.8,0.8,0.691,"condition_80cue"
44,1,8," S4-20.jpg",2,2," yellow","congruent",2,1,1.3665,0.8833,1,0.8,0.8,0.4832,"condition_80cue"
44,1,9," S3-12.jpg",1,2," yellow","incongruent",1,1,1.7654,1.1833,1,0.8,0.2,0.5821,"condition_80cue"
44,1,10," S3-12.jpg",1,1," red","congruent",1,1,1.8236,1.2,1,0.8,0.8,0.6236,"condition_80cue"
44,1,11," S3-12.jpg",1,3," blue","neutral",1,1,1.5186,0.85,1,0.5,0.5,0.6686,"condition_80cue"
44,1,12," S4-20.jpg",2,2," yellow","congruent",2,1,1.2283,0.8,1,0.8,0.8,0.4283,"condition_80cue"
44,1,13," S3-12.jpg",1,3," blue","neutral",1,1,1.4715,0.8667,1,0.5,0.5,0.6048,"condition_80cue"
44,1,14," S3-12.jpg",1,1," red","congruent",1,1,2.0378,1.1667,1,0.8,0.8,0.8711,"condition_80cue"
44,1,15," S4-20.jpg",2,2," yellow","congruent",2,1,1.4607,0.7833,1,0.8,0.8,0.6774,"condition_80cue"
44,1,16," S3-12.jpg",1,1," red","congruent",1,1,1.0949,0.75,1,0.8,0.8,0.3449,"condition_80cue"
44,1,17," S3-12.jpg",1,1," red","congruent",1,1,1.1321,0.7667,1,0.8,0.8,0.3654,"condition_80cue"
44,1,18," S3-12.jpg",1,2," yellow","incongruent",2,0,1.4473,0.7667,1,0.8,0.2,0.6806,"condition_80cue"
44,1,19," S4-20.jpg",2,1," red","incongruent",2,1,1.7426,0.95,1,0.8,0.2,0.7926,"condition_80cue"
44,1,20," S4-20.jpg",2,2," yellow","congruent",2,1,1.5787,0.8833,1,0.8,0.8,0.6954,"condition_80cue"
44,1,21," S3-12.jpg",1,1," red","congruent",1,1,2.2242,1.5,1,0.8,0.8,0.7242,"condition_80cue"
44,1,22," S3-12.jpg",1,3," blue","neutral",1,1,1.3418,0.85,1,0.5,0.5,0.4918,"condition_80cue"
44,1,23," S3-12.jpg",1,1," red","congruent",1,1,1.4596,0.7667,1,0.8,0.8,0.6929,"condition_80cue"
44,1,24," S3-12.jpg",1,1," red","congruent",1,1,1.8006,1,1,0.8,0.8,0.8006,"condition_80cue"
44,1,25," S4-20.jpg",2,1," red","incongruent",2,1,1.6251,0.9333,1,0.8,0.2,0.6918,"condition_80cue"
44,1,26," S3-12.jpg",1,1," red","congruent",1,1,1.8832,1.1167,1,0.8,0.8,0.7665,"condition_80cue"
44,1,27," S4-20.jpg",2,2," yellow","congruent",2,1,1.6473,0.9833,1,0.8,0.8,0.664,"condition_80cue"
44,1,28," S4-20.jpg",2,2," yellow","congruent",2,1,1.3429,0.8,1,0.8,0.8,0.5429,"condition_80cue"
44,1,29," S4-20.jpg",2,3," blue","neutral",2,1,1.7187,1.15,1,0.5,0.5,0.5687,"condition_80cue"
44,1,30," S4-20.jpg",2,2," yellow","congruent",2,1,1.661,1.0167,1,0.8,0.8,0.6443,"condition_80cue"
44,1,31," S3-12.jpg",1,3," blue","neutral",1,1,1.4013,0.8167,1,0.5,0.5,0.5846,"condition_80cue"
44,1,32," S4-20.jpg",2,2," yellow","congruent",2,1,1.7778,1.0667,1,0.8,0.8,0.7111,"condition_80cue"
44,1,33," S3-12.jpg",1,2," yellow","incongruent",1,1,1.5307,0.8,1,0.8,0.2,0.7307,"condition_80cue"
44,1,34," S3-12.jpg",1,3," blue","neutral",1,1,1.4713,0.8,1,0.5,0.5,0.6713,"condition_80cue"
44,1,35," S3-12.jpg",1,1," red","congruent",1,1,2.0832,0.9167,1,0.8,0.8,1.1665,"condition_80cue"
44,1,36," S4-20.jpg",2,2," yellow","congruent",2,1,1.4607,0.8333,1,0.8,0.8,0.6274,"condition_80cue"
44,1,37," S3-12.jpg",1,1," red","congruent",1,1,1.8487,0.7833,1,0.8,0.8,1.0654,"condition_80cue"
44,1,38," S3-12.jpg",1,1," red","congruent",1,1,1.5067,0.8,1,0.8,0.8,0.7067,"condition_80cue"
44,1,39," S4-20.jpg",2,2," yellow","congruent",2,1,1.3199,0.8167,1,0.8,0.8,0.5032,"condition_80cue"
44,1,40," S3-12.jpg",1,1," red","congruent",1,1,1.1424,0.8333,1,0.8,0.8,0.3091,"condition_80cue"
44,1,41," S4-20.jpg",2,1," red","incongruent",2,1,1.3077,0.7667,1,0.8,0.2,0.541,"condition_80cue"
44,1,42," S4-20.jpg",2,2," yellow","congruent",2,1,1.4951,0.8667,1,0.8,0.8,0.6284,"condition_80cue"
44,1,43," S3-12.jpg",1,3," blue","neutral",1,1,1.6954,1.0167,1,0.5,0.5,0.6787,"condition_80cue"
44,1,44," S3-12.jpg",1,3," blue","neutral",2,0,0.9901,0.7667,1,0.5,0.5,0.2234,"condition_80cue"
44,1,45," S4-20.jpg",2,3," blue","neutral",2,1,1.2246,0.9167,1,0.5,0.5,0.3079,"condition_80cue"
44,1,46," S3-12.jpg",1,1," red","congruent",1,1,1.4954,0.85,1,0.8,0.8,0.6454,"condition_80cue"
44,1,47," S4-20.jpg",2,2," yellow","congruent",2,1,0.7908,0.8,1,0.8,0.8,-0.0092000000000001,"condition_80cue"
44,1,48," S4-20.jpg",2,3," blue","neutral",2,1,1.3788,0.7833,1,0.5,0.5,0.5955,"condition_80cue"
44,1,49," S3-12.jpg",1,1," red","congruent",1,1,0.871,0.7833,1,0.8,0.8,0.0877,"condition_80cue"
44,1,50," S3-12.jpg",1,3," blue","neutral",1,1,1.5656,0.9167,1,0.5,0.5,0.6489,"condition_80cue"
44,1,51," S4-20.jpg",2,2," yellow","congruent",2,1,0.6428,0.8167,1,0.8,0.8,-0.1739,"condition_80cue"
44,1,52," S3-12.jpg",1,3," blue","neutral",2,0,1.2591,0.95,1,0.5,0.5,0.3091,"condition_80cue"
44,1,53," S4-20.jpg",2,3," blue","neutral",2,1,1.426,0.7667,1,0.5,0.5,0.6593,"condition_80cue"
44,1,54," S4-20.jpg",2,3," blue","neutral",1,0,1.2809,0.7833,1,0.5,0.5,0.4976,"condition_80cue"
44,1,55," S3-12.jpg",1,1," red","congruent",1,1,1.4018,0.7833,1,0.8,0.8,0.6185,"condition_80cue"
44,1,56," S4-20.jpg",2,1," red","incongruent",2,1,1.3892,0.7833,1,0.8,0.2,0.6059,"condition_80cue"
44,1,57," S3-12.jpg",1,1," red","congruent",1,1,1.2717,0.7667,1,0.8,0.8,0.505,"condition_80cue"
44,1,58," S4-20.jpg",2,3," blue","neutral",2,1,1.4131,0.9667,1,0.5,0.5,0.4464,"condition_80cue"
44,1,59," S4-20.jpg",2,3," blue","neutral",2,1,1.5064,0.8833,1,0.5,0.5,0.6231,"condition_80cue"
44,1,60," S4-20.jpg",2,2," yellow","congruent",2,1,0.7143,0.85,1,0.8,0.8,-0.1357,"condition_80cue"
44,1,61," S4-20.jpg",2,1," red","incongruent",2,1,1.4364,0.8333,1,0.8,0.2,0.6031,"condition_80cue"
44,1,62," S4-20.jpg",2,2," yellow","congruent",2,1,1.3307,0.8667,1,0.8,0.8,0.464,"condition_80cue"
44,1,63," S4-20.jpg",2,2," yellow","congruent",2,1,1.4954,1.0333,1,0.8,0.8,0.4621,"condition_80cue"
44,1,64," S3-12.jpg",1,2," yellow","incongruent",1,1,1.2006,0.7833,1,0.8,0.2,0.4173,"condition_80cue"
44,1,65," S3-12.jpg",1,3," blue","neutral",1,1,1.4133,0.9333,1,0.5,0.5,0.48,"condition_80cue"
44,1,66," S4-20.jpg",2,3," blue","neutral",2,1,1.6605,0.95,1,0.5,0.5,0.7105,"condition_80cue"
44,1,67," S3-12.jpg",1,3," blue","neutral",1,1,1.5777,0.7667,1,0.5,0.5,0.811,"condition_80cue"
44,1,68," S3-12.jpg",1,1," red","congruent",1,1,1.5301,1,1,0.8,0.8,0.5301,"condition_80cue"
44,1,69," S4-20.jpg",2,2," yellow","congruent",2,1,1.4134,0.7833,1,0.8,0.8,0.6301,"condition_80cue"
44,1,70," S3-12.jpg",1,1," red","congruent",1,1,1.7425,0.8167,1,0.8,0.8,0.9258,"condition_80cue"
44,1,71," S3-12.jpg",1,2," yellow","incongruent",2,0,1.2834,0.9,1,0.8,0.2,0.3834,"condition_80cue"
44,1,72," S3-12.jpg",1,3," blue","neutral",1,1,1.5775,0.9833,1,0.5,0.5,0.5942,"condition_80cue"
44,1,73," S3-12.jpg",1,3," blue","neutral",1,1,1.6723,1.1,1,0.5,0.5,0.5723,"condition_80cue"
44,1,74," S3-12.jpg",1,1," red","congruent",1,1,1.3076,0.8,1,0.8,0.8,0.5076,"condition_80cue"
44,1,75," S4-20.jpg",2,3," blue","neutral",2,1,1.4602,0.8667,1,0.5,0.5,0.5935,"condition_80cue"
44,1,76," S3-12.jpg",1,1," red","congruent",1,1,1.4717,0.9667,1,0.8,0.8,0.505,"condition_80cue"
44,1,77," S4-20.jpg",2,2," yellow","congruent",2,1,0.2867,1.0333,1,0.8,0.8,-0.7466,"condition_80cue"
