"subID","block","trial","image","imageIdx","cueIdx","cue_string","congruent","response","accuracy","RT","cueDuration","learningRound","trueCue","congCue","imgLockedRT"
32,1,1," S4-20.jpg",2,2," purple","congruent",2,1,1.9575,0.8,1,0.8,0.8,1.1575
32,1,2," S3-12.jpg",1,3," green","neutral",1,1,1.5058,0.8,1,0.5,0.5,0.7058
32,1,3," S4-20.jpg",2,2," purple","congruent",2,1,1.4387,0.8167,1,0.8,0.8,0.622
32,1,4," S3-12.jpg",1,1," orange","congruent",1,1,1.8709,0.9,1,0.8,0.8,0.9709
32,1,5," S3-12.jpg",1,2," purple","incongruent",1,1,2.4218,1.1667,1,0.8,0.2,1.2551
32,1,6," S3-12.jpg",1,1," orange","congruent",1,1,1.6326,0.7667,1,0.8,0.8,0.8659
32,1,7," S3-12.jpg",1,1," orange","congruent",1,1,1.6266,0.9167,1,0.8,0.8,0.7099
32,1,8," S3-12.jpg",1,1," orange","congruent",1,1,1.7539,1.1167,1,0.8,0.8,0.6372
32,1,9," S4-20.jpg",2,3," green","neutral",2,1,1.378,0.8667,1,0.5,0.5,0.5113
32,1,10," S3-12.jpg",1,3," green","neutral",1,1,1.4364,0.8,1,0.5,0.5,0.6364
32,1,11," S3-12.jpg",1,3," green","neutral",1,1,1.8377,0.9167,1,0.5,0.5,0.921
32,1,12," S3-12.jpg",1,1," orange","congruent",1,1,0.751,0.8333,1,0.8,0.8,-0.0823
32,1,13," S4-20.jpg",2,1," orange","incongruent",1,0,0.5429,1.5,1,0.8,0.2,-0.9571
32,1,14," S3-12.jpg",1,1," orange","congruent",1,1,1.4248,0.8333,1,0.8,0.8,0.5915
32,1,15," S3-12.jpg",1,3," green","neutral",1,1,1.4248,0.9833,1,0.5,0.5,0.4415
32,1,16," S3-12.jpg",1,2," purple","incongruent",2,0,0.6569,0.7667,1,0.8,0.2,-0.1098
32,1,17," S4-20.jpg",2,3," green","neutral",1,0,1.142,0.85,1,0.5,0.5,0.292
32,1,18," S3-12.jpg",1,3," green","neutral",2,0,1.2598,0.7833,1,0.5,0.5,0.4765
32,1,19," S3-12.jpg",1,2," purple","incongruent",2,0,0.8117,0.7833,1,0.8,0.2,0.0284
32,1,20," S3-12.jpg",1,3," green","neutral",1,1,0.5828,0.8167,1,0.5,0.5,-0.2339
32,1,21," S4-20.jpg",2,2," purple","congruent",2,1,0.6111,0.8333,1,0.8,0.8,-0.2222
32,1,22," S4-20.jpg",2,2," purple","congruent",2,1,0.5672,0.8833,1,0.8,0.8,-0.3161
32,1,23," S3-12.jpg",1,2," purple","incongruent",2,0,0.5418,1.05,1,0.8,0.2,-0.5082
32,1,24," S4-20.jpg",2,2," purple","congruent",2,1,1.0003,0.9333,1,0.8,0.8,0.067
32,1,25," S4-20.jpg",2,2," purple","congruent",2,1,0.5591,0.7667,1,0.8,0.8,-0.2076
32,1,26," S3-12.jpg",1,1," orange","congruent",1,1,0.5943,0.8667,1,0.8,0.8,-0.2724
32,1,27," S4-20.jpg",2,3," green","neutral",1,0,0.5607,0.7833,1,0.5,0.5,-0.2226
32,1,28," S3-12.jpg",1,3," green","neutral",1,1,1.5881,0.8333,1,0.5,0.5,0.7548
32,1,29," S4-20.jpg",2,3," green","neutral",1,0,0.5569,0.8167,1,0.5,0.5,-0.2598
32,1,30," S4-20.jpg",2,2," purple","congruent",2,1,0.6283,0.9667,1,0.8,0.8,-0.3384
32,1,31," S3-12.jpg",1,3," green","neutral",1,1,0.8713,0.7667,1,0.5,0.5,0.1046
32,1,32," S3-12.jpg",1,2," purple","incongruent",2,0,0.5235,0.9,1,0.8,0.2,-0.3765
32,1,33," S3-12.jpg",1,3," green","neutral",1,1,0.74,0.75,1,0.5,0.5,-0.01
32,1,34," S4-20.jpg",2,3," green","neutral",1,0,0.883,0.7667,1,0.5,0.5,0.1163
32,1,35," S3-12.jpg",1,1," orange","congruent",1,1,0.8044,1.0833,1,0.8,0.8,-0.2789
32,1,36," S3-12.jpg",1,1," orange","congruent",1,1,0.7937,1.1333,1,0.8,0.8,-0.3396
32,1,37," S4-20.jpg",2,2," purple","congruent",2,1,0.7147,0.85,1,0.8,0.8,-0.1353
32,1,38," S3-12.jpg",1,1," orange","congruent",1,1,0.8572,0.9,1,0.8,0.8,-0.0428000000000001
32,1,39," S4-20.jpg",2,2," purple","congruent",2,1,0.7326,1.0167,1,0.8,0.8,-0.2841
32,1,40," S4-20.jpg",2,3," green","neutral",1,0,0.6898,1,1,0.5,0.5,-0.3102
32,1,41," S4-20.jpg",2,2," purple","congruent",2,1,0.7622,0.85,1,0.8,0.8,-0.0878
32,1,42," S4-20.jpg",2,2," purple","congruent",2,1,0.5972,0.8833,1,0.8,0.8,-0.2861
32,1,43," S3-12.jpg",1,3," green","neutral",1,1,0.6104,0.8,1,0.5,0.5,-0.1896
32,1,44," S4-20.jpg",2,2," purple","congruent",2,1,0.5379,1,1,0.8,0.8,-0.4621
32,1,45," S3-12.jpg",1,1," orange","congruent",1,1,0.7982,0.7833,1,0.8,0.8,0.0149
32,1,46," S3-12.jpg",1,1," orange","congruent",1,1,0.6055,0.7833,1,0.8,0.8,-0.1778
32,1,47," S4-20.jpg",2,3," green","neutral",1,0,0.7875,0.85,1,0.5,0.5,-0.0625
32,1,48," S4-20.jpg",2,1," orange","incongruent",1,0,0.8479,0.75,1,0.8,0.2,0.0979
32,1,49," S3-12.jpg",1,3," green","neutral",1,1,1.0477,0.8167,1,0.5,0.5,0.231
32,1,50," S3-12.jpg",1,1," orange","congruent",2,0,0.7653,0.95,1,0.8,0.8,-0.1847
32,1,51," S3-12.jpg",1,1," orange","congruent",1,1,0.6897,1.5,1,0.8,0.8,-0.8103
32,1,52," S4-20.jpg",2,2," purple","congruent",2,1,0.632,1.0333,1,0.8,0.8,-0.4013
32,1,53," S4-20.jpg",2,1," orange","incongruent",1,0,0.8699,0.7833,1,0.8,0.2,0.0866
32,1,54," S4-20.jpg",2,3," green","neutral",1,0,1.0237,0.9167,1,0.5,0.5,0.107
32,1,55," S3-12.jpg",1,3," green","neutral",1,1,1.719,0.95,1,0.5,0.5,0.769
32,1,56," S3-12.jpg",1,1," orange","congruent",1,1,1.4368,0.7667,1,0.8,0.8,0.6701
32,1,57," S4-20.jpg",2,2," purple","congruent",2,1,1.0007,0.8667,1,0.8,0.8,0.134
32,1,58," S4-20.jpg",2,2," purple","congruent",2,1,0.6144,0.8,1,0.8,0.8,-0.1856
32,1,59," S4-20.jpg",2,3," green","neutral",1,0,0.7157,0.8667,1,0.5,0.5,-0.151
32,1,60," S3-12.jpg",1,1," orange","congruent",1,1,1.1652,0.8833,1,0.8,0.8,0.2819
32,1,61," S3-12.jpg",1,1," orange","congruent",1,1,0.9209,1.0667,1,0.8,0.8,-0.1458
32,1,62," S4-20.jpg",2,2," purple","congruent",2,1,0.7916,0.85,1,0.8,0.8,-0.0584
32,1,63," S4-20.jpg",2,1," orange","incongruent",1,0,1.2819,0.9667,1,0.8,0.2,0.3152
32,1,64," S4-20.jpg",2,3," green","neutral",1,0,0.629,0.8333,1,0.5,0.5,-0.2043
32,1,65," S4-20.jpg",2,2," purple","congruent",2,1,0.8404,1.15,1,0.8,0.8,-0.3096
32,1,66," S3-12.jpg",1,3," green","neutral",1,1,0.8481,0.7833,1,0.5,0.5,0.0648
32,1,67," S4-20.jpg",2,3," green","neutral",1,0,0.6499,1.1,1,0.5,0.5,-0.4501
32,1,68," S4-20.jpg",2,2," purple","congruent",2,1,1.2021,0.8167,1,0.8,0.8,0.3854
32,1,69," S3-12.jpg",1,1," orange","congruent",1,1,1.4837,0.8833,1,0.8,0.8,0.6004
32,1,70," S4-20.jpg",2,2," purple","congruent",2,1,1.6828,0.9333,1,0.8,0.8,0.7495
32,1,71," S3-12.jpg",1,1," orange","congruent",1,1,0.7651,0.9833,1,0.8,0.8,-0.2182
32,1,72," S3-12.jpg",1,1," orange","congruent",1,1,0.8237,0.7667,1,0.8,0.8,0.0569999999999999
32,1,73," S4-20.jpg",2,3," green","neutral",1,0,0.859,0.8,1,0.5,0.5,0.0589999999999999
32,1,74," S4-20.jpg",2,2," purple","congruent",2,1,1.0823,0.9333,1,0.8,0.8,0.149
32,1,75," S4-20.jpg",2,1," orange","incongruent",1,0,1.0827,0.8167,1,0.8,0.2,0.266
33,1,1," S2-19.jpg",1,3," red","neutral",NA,0,NA,0.8333,1,0.5,0.5,NA
33,1,2," S1-15.jpg",2,2," blue","congruent",2,1,1.7549,1.0833,1,0.8,0.8,0.6716
33,1,3," S2-19.jpg",1,1," yellow","congruent",1,1,2.2502,0.9167,1,0.8,0.8,1.3335
33,1,4," S1-15.jpg",2,2," blue","congruent",2,1,1.6625,0.7833,1,0.8,0.8,0.8792
33,1,5," S2-19.jpg",1,2," blue","incongruent",1,1,1.7559,0.8333,1,0.8,0.2,0.9226
33,1,6," S2-19.jpg",1,1," yellow","congruent",1,1,2.0502,1.1,1,0.8,0.8,0.9502
33,1,7," S2-19.jpg",1,1," yellow","congruent",1,1,1.6853,0.7833,1,0.8,0.8,0.902
33,1,8," S2-19.jpg",1,3," red","neutral",1,1,1.8842,0.9,1,0.5,0.5,0.9842
33,1,9," S1-15.jpg",2,2," blue","congruent",2,1,1.7763,0.8,1,0.8,0.8,0.9763
33,1,10," S2-19.jpg",1,1," yellow","congruent",1,1,1.8598,0.8667,1,0.8,0.8,0.9931
33,1,11," S2-19.jpg",1,3," red","neutral",1,1,1.3766,0.75,1,0.5,0.5,0.6266
33,1,12," S1-15.jpg",2,2," blue","congruent",2,1,1.6478,0.7667,1,0.8,0.8,0.8811
33,1,13," S2-19.jpg",1,1," yellow","congruent",1,1,1.5564,0.9,1,0.8,0.8,0.6564
33,1,14," S1-15.jpg",2,2," blue","congruent",2,1,0.7285,0.9333,1,0.8,0.8,-0.2048
33,1,15," S1-15.jpg",2,3," red","neutral",2,1,1.6836,0.8833,1,0.5,0.5,0.8003
33,1,16," S1-15.jpg",2,2," blue","congruent",2,1,1.4953,0.95,1,0.8,0.8,0.5453
33,1,17," S1-15.jpg",2,1," yellow","incongruent",1,0,0.5831,0.85,1,0.8,0.2,-0.2669
33,1,18," S2-19.jpg",1,2," blue","incongruent",1,1,2.2123,1.0333,1,0.8,0.2,1.179
33,1,19," S2-19.jpg",1,1," yellow","congruent",1,1,2.2005,1.1167,1,0.8,0.8,1.0838
33,1,20," S1-15.jpg",2,3," red","neutral",2,1,1.3904,0.7833,1,0.5,0.5,0.6071
33,1,21," S1-15.jpg",2,2," blue","congruent",2,1,1.8251,0.8833,1,0.8,0.8,0.9418
33,1,22," S1-15.jpg",2,2," blue","congruent",2,1,1.5895,0.7833,1,0.8,0.8,0.8062
33,1,23," S1-15.jpg",2,3," red","neutral",2,1,1.6721,1.1333,1,0.5,0.5,0.5388
33,1,24," S1-15.jpg",2,2," blue","congruent",2,1,1.3189,0.8333,1,0.8,0.8,0.4856
33,1,25," S2-19.jpg",1,2," blue","incongruent",1,1,1.7891,1,1,0.8,0.2,0.7891
33,1,26," S1-15.jpg",2,3," red","neutral",2,1,1.59,0.8167,1,0.5,0.5,0.7733
33,1,27," S2-19.jpg",1,1," yellow","congruent",1,1,1.4481,0.7667,1,0.8,0.8,0.6814
33,1,28," S1-15.jpg",2,2," blue","congruent",2,1,1.6717,0.9667,1,0.8,0.8,0.705
33,1,29," S1-15.jpg",2,2," blue","congruent",2,1,1.848,1.15,1,0.8,0.8,0.698
33,1,30," S1-15.jpg",2,2," blue","congruent",2,1,1.4604,0.9167,1,0.8,0.8,0.5437
33,1,31," S2-19.jpg",1,3," red","neutral",1,1,1.6224,0.8,1,0.5,0.5,0.8224
33,1,32," S2-19.jpg",1,1," yellow","congruent",1,1,1.9778,0.7667,1,0.8,0.8,1.2111
33,1,33," S1-15.jpg",2,3," red","neutral",2,1,1.6244,0.8167,1,0.5,0.5,0.8077
33,1,34," S2-19.jpg",1,1," yellow","congruent",1,1,1.6599,0.8833,1,0.8,0.8,0.7766
33,1,35," S2-19.jpg",1,3," red","neutral",1,1,1.695,0.7667,1,0.5,0.5,0.9283
33,1,36," S2-19.jpg",1,3," red","neutral",1,1,1.6475,1.05,1,0.5,0.5,0.5975
33,1,37," S2-19.jpg",1,3," red","neutral",1,1,1.3657,0.8667,1,0.5,0.5,0.499
33,1,38," S2-19.jpg",1,1," yellow","congruent",1,1,1.2844,0.8,1,0.8,0.8,0.4844
33,1,39," S1-15.jpg",2,3," red","neutral",2,1,1.613,0.85,1,0.5,0.5,0.763
33,1,40," S2-19.jpg",1,3," red","neutral",1,1,2.2246,0.8167,1,0.5,0.5,1.4079
33,1,41," S1-15.jpg",2,2," blue","congruent",2,1,1.753,0.9833,1,0.8,0.8,0.7697
33,1,42," S2-19.jpg",1,1," yellow","congruent",1,1,2.1059,0.9833,1,0.8,0.8,1.1226
33,1,43," S1-15.jpg",2,1," yellow","incongruent",2,1,1.4362,0.8167,1,0.8,0.2,0.6195
33,1,44," S2-19.jpg",1,2," blue","incongruent",1,1,1.6699,0.9333,1,0.8,0.2,0.7366
33,1,45," S1-15.jpg",2,3," red","neutral",2,1,2.071,0.7833,1,0.5,0.5,1.2877
33,1,46," S2-19.jpg",1,1," yellow","congruent",1,1,1.4947,0.85,1,0.8,0.8,0.6447
33,1,47," S1-15.jpg",2,2," blue","congruent",2,1,1.7649,1.0167,1,0.8,0.8,0.7482
33,1,48," S1-15.jpg",2,2," blue","congruent",2,1,1.6114,0.7833,1,0.8,0.8,0.8281
33,1,49," S2-19.jpg",1,1," yellow","congruent",1,1,1.5196,0.85,1,0.8,0.8,0.6696
33,1,50," S1-15.jpg",2,2," blue","congruent",2,1,1.6014,0.7667,1,0.8,0.8,0.8347
33,1,51," S1-15.jpg",2,1," yellow","incongruent",2,1,1.6358,0.8167,1,0.8,0.2,0.8191
33,1,52," S2-19.jpg",1,1," yellow","congruent",1,1,1.4593,0.8,1,0.8,0.8,0.6593
33,1,53," S1-15.jpg",2,3," red","neutral",2,1,1.6245,0.9,1,0.5,0.5,0.7245
33,1,54," S2-19.jpg",1,2," blue","incongruent",1,1,1.9546,0.9667,1,0.8,0.2,0.9879
33,1,55," S1-15.jpg",2,1," yellow","incongruent",2,1,1.9185,0.8667,1,0.8,0.2,1.0518
33,1,56," S2-19.jpg",1,1," yellow","congruent",1,1,1.883,0.85,1,0.8,0.8,1.033
33,1,57," S1-15.jpg",2,2," blue","congruent",2,1,2.1416,1.5,1,0.8,0.8,0.6416
33,1,58," S2-19.jpg",1,3," red","neutral",1,1,1.8952,0.8,1,0.5,0.5,1.0952
33,1,59," S1-15.jpg",2,3," red","neutral",2,1,1.8948,0.8333,1,0.5,0.5,1.0615
33,1,60," S1-15.jpg",2,3," red","neutral",1,0,2.1425,1.1667,1,0.5,0.5,0.9758
33,1,61," S1-15.jpg",2,2," blue","congruent",2,1,1.7067,0.95,1,0.8,0.8,0.7567
33,1,62," S1-15.jpg",2,3," red","neutral",2,1,1.4833,0.7667,1,0.5,0.5,0.7166
33,1,63," S1-15.jpg",2,2," blue","congruent",2,1,1.3664,0.8,1,0.8,0.8,0.5664
33,1,64," S2-19.jpg",1,1," yellow","congruent",1,1,1.5896,0.9167,1,0.8,0.8,0.6729
33,1,65," S2-19.jpg",1,3," red","neutral",1,1,1.6122,0.8667,1,0.5,0.5,0.7455
33,1,66," S1-15.jpg",2,2," blue","congruent",2,1,1.518,0.7667,1,0.8,0.8,0.7513
33,1,67," S2-19.jpg",1,3," red","neutral",1,1,1.5183,0.9333,1,0.5,0.5,0.585
33,1,68," S2-19.jpg",1,1," yellow","congruent",1,1,1.6119,0.75,1,0.8,0.8,0.8619
33,1,69," S2-19.jpg",1,3," red","neutral",1,1,2.2955,1,1,0.5,0.5,1.2955
33,1,70," S1-15.jpg",2,3," red","neutral",2,1,1.9072,0.8167,1,0.5,0.5,1.0905
33,1,71," S2-19.jpg",1,1," yellow","congruent",1,1,1.6712,0.8333,1,0.8,0.8,0.8379
33,1,72," S2-19.jpg",1,1," yellow","congruent",1,1,1.5423,0.7833,1,0.8,0.8,0.759
33,1,73," S1-15.jpg",2,1," yellow","incongruent",2,1,2.1422,0.8833,1,0.8,0.2,1.2589
33,1,74," S2-19.jpg",1,3," red","neutral",1,1,2.3425,1.5,1,0.5,0.5,0.8425
33,1,75," S2-19.jpg",1,1," yellow","congruent",1,1,1.9772,1.0667,1,0.8,0.8,0.9105
35,1,1," S2-19.jpg",1,3," red","neutral",NA,0,NA,0.7667,1,0.5,0.5,NA
35,1,2," S2-19.jpg",1,1," blue","congruent",1,1,1.2733,0.8167,1,0.8,0.8,0.4566
35,1,3," S1-15.jpg",2,3," red","neutral",2,1,1.3772,0.8667,1,0.5,0.5,0.5105
35,1,4," S1-15.jpg",2,1," blue","incongruent",2,1,1.4742,1.0167,1,0.8,0.2,0.4575
35,1,5," S2-19.jpg",1,1," blue","congruent",1,1,1.4724,0.8833,1,0.8,0.8,0.5891
35,1,6," S2-19.jpg",1,1," blue","congruent",1,1,1.201,0.7833,1,0.8,0.8,0.4177
35,1,7," S1-15.jpg",2,3," red","neutral",2,1,1.2369,0.9333,1,0.5,0.5,0.3036
35,1,8," S1-15.jpg",2,3," red","neutral",2,1,0.3513,0.7833,1,0.5,0.5,-0.432
35,1,9," S1-15.jpg",2,2," yellow","congruent",2,1,1.4133,0.8,1,0.8,0.8,0.6133
35,1,10," S1-15.jpg",2,2," yellow","congruent",2,1,1.4248,1,1,0.8,0.8,0.4248
35,1,11," S1-15.jpg",2,3," red","neutral",2,1,0.6884,0.8,1,0.5,0.5,-0.1116
35,1,12," S2-19.jpg",1,3," red","neutral",2,0,0.457,0.9,1,0.5,0.5,-0.443
35,1,13," S2-19.jpg",1,1," blue","congruent",1,1,0.4174,0.8667,1,0.8,0.8,-0.4493
35,1,14," S1-15.jpg",2,3," red","neutral",2,1,0.5916,0.7667,1,0.5,0.5,-0.1751
35,1,15," S1-15.jpg",2,2," yellow","congruent",2,1,1.5619,1.1167,1,0.8,0.8,0.4452
35,1,16," S2-19.jpg",1,1," blue","congruent",1,1,0.5669,0.8167,1,0.8,0.8,-0.2498
35,1,17," S2-19.jpg",1,1," blue","congruent",1,1,0.5398,0.9667,1,0.8,0.8,-0.4269
35,1,18," S2-19.jpg",1,3," red","neutral",2,0,0.3194,0.95,1,0.5,0.5,-0.6306
35,1,19," S2-19.jpg",1,1," blue","congruent",1,1,0.9058,0.7833,1,0.8,0.8,0.1225
35,1,20," S1-15.jpg",2,2," yellow","congruent",2,1,1.0268,1.15,1,0.8,0.8,-0.1232
35,1,21," S1-15.jpg",2,2," yellow","congruent",2,1,0.4223,0.9667,1,0.8,0.8,-0.5444
35,1,22," S2-19.jpg",1,2," yellow","incongruent",2,0,0.467,1.1333,1,0.8,0.2,-0.6663
35,1,23," S1-15.jpg",2,3," red","neutral",1,0,0.713,0.85,1,0.5,0.5,-0.137
35,1,24," S1-15.jpg",2,2," yellow","congruent",2,1,0.7641,1.5,1,0.8,0.8,-0.7359
35,1,25," S2-19.jpg",1,1," blue","congruent",1,1,0.5573,0.8667,1,0.8,0.8,-0.3094
35,1,26," S2-19.jpg",1,2," yellow","incongruent",2,0,0.5157,0.7833,1,0.8,0.2,-0.2676
35,1,27," S1-15.jpg",2,1," blue","incongruent",1,0,0.4589,0.8333,1,0.8,0.2,-0.3744
35,1,28," S1-15.jpg",2,2," yellow","congruent",2,1,0.5703,0.8167,1,0.8,0.8,-0.2464
35,1,29," S1-15.jpg",2,3," red","neutral",2,1,0.6063,0.9333,1,0.5,0.5,-0.327
35,1,30," S1-15.jpg",2,2," yellow","congruent",2,1,0.5101,0.8333,1,0.8,0.8,-0.3232
35,1,31," S1-15.jpg",2,1," blue","incongruent",1,0,0.4332,0.8667,1,0.8,0.2,-0.4335
35,1,32," S1-15.jpg",2,2," yellow","congruent",2,1,0.5835,0.7667,1,0.8,0.8,-0.1832
35,1,33," S1-15.jpg",2,3," red","neutral",2,1,0.5091,0.8333,1,0.5,0.5,-0.3242
35,1,34," S2-19.jpg",1,3," red","neutral",2,0,0.4727,0.85,1,0.5,0.5,-0.3773
35,1,35," S1-15.jpg",2,3," red","neutral",1,0,0.7392,1.0833,1,0.5,0.5,-0.3441
35,1,36," S2-19.jpg",1,3," red","neutral",2,0,0.4964,1.1,1,0.5,0.5,-0.6036
35,1,37," S2-19.jpg",1,2," yellow","incongruent",2,0,0.9311,0.9833,1,0.8,0.2,-0.0521999999999999
35,1,38," S2-19.jpg",1,1," blue","congruent",1,1,0.4513,1.05,1,0.8,0.8,-0.5987
35,1,39," S2-19.jpg",1,3," red","neutral",1,1,0.5818,0.9,1,0.5,0.5,-0.3182
35,1,40," S2-19.jpg",1,1," blue","congruent",1,1,0.527,0.8,1,0.8,0.8,-0.273
35,1,41," S2-19.jpg",1,1," blue","congruent",1,1,0.4643,0.7667,1,0.8,0.8,-0.3024
35,1,42," S2-19.jpg",1,3," red","neutral",2,0,0.4519,0.9833,1,0.5,0.5,-0.5314
35,1,43," S1-15.jpg",2,2," yellow","congruent",2,1,0.7886,0.9,1,0.8,0.8,-0.1114
35,1,44," S1-15.jpg",2,3," red","neutral",1,0,0.4134,0.8167,1,0.5,0.5,-0.4033
35,1,45," S1-15.jpg",2,2," yellow","congruent",2,1,0.548,1.5,1,0.8,0.8,-0.952
35,1,46," S1-15.jpg",2,2," yellow","congruent",2,1,0.5492,0.7833,1,0.8,0.8,-0.2341
35,1,47," S1-15.jpg",2,2," yellow","congruent",1,0,0.589,0.8,1,0.8,0.8,-0.211
35,1,48," S1-15.jpg",2,2," yellow","congruent",2,1,0.5499,1.0667,1,0.8,0.8,-0.5168
35,1,49," S2-19.jpg",1,2," yellow","incongruent",2,0,0.4927,0.9167,1,0.8,0.2,-0.424
35,1,50," S2-19.jpg",1,3," red","neutral",2,0,0.7027,0.7667,1,0.5,0.5,-0.0640000000000001
35,1,51," S1-15.jpg",2,2," yellow","congruent",2,1,0.4822,0.8833,1,0.8,0.8,-0.4011
35,1,52," S2-19.jpg",1,1," blue","congruent",1,1,0.4895,0.8833,1,0.8,0.8,-0.3938
35,1,53," S2-19.jpg",1,1," blue","congruent",1,1,0.5526,0.8333,1,0.8,0.8,-0.2807
35,1,54," S2-19.jpg",1,3," red","neutral",2,0,0.4001,0.8333,1,0.5,0.5,-0.4332
35,1,55," S2-19.jpg",1,1," blue","congruent",1,1,0.542,0.8167,1,0.8,0.8,-0.2747
35,1,56," S2-19.jpg",1,3," red","neutral",1,1,0.4604,0.8833,1,0.5,0.5,-0.4229
35,1,57," S2-19.jpg",1,3," red","neutral",2,0,0.8253,1.1667,1,0.5,0.5,-0.3414
35,1,58," S2-19.jpg",1,1," blue","congruent",1,1,0.5095,0.9167,1,0.8,0.8,-0.4072
35,1,59," S2-19.jpg",1,1," blue","congruent",1,1,0.4964,1.0333,1,0.8,0.8,-0.5369
35,1,60," S1-15.jpg",2,2," yellow","congruent",2,1,1.2846,0.8167,1,0.8,0.8,0.4679
35,1,61," S2-19.jpg",1,1," blue","congruent",1,1,0.5999,0.7667,1,0.8,0.8,-0.1668
35,1,62," S1-15.jpg",2,2," yellow","congruent",2,1,0.669,0.85,1,0.8,0.8,-0.181
35,1,63," S1-15.jpg",2,2," yellow","congruent",2,1,0.662,0.7667,1,0.8,0.8,-0.1047
35,1,64," S1-15.jpg",2,3," red","neutral",1,0,0.77,1,1,0.5,0.5,-0.23
35,1,65," S1-15.jpg",2,2," yellow","congruent",2,1,0.6111,0.75,1,0.8,0.8,-0.1389
35,1,66," S2-19.jpg",1,1," blue","congruent",1,1,0.5101,0.85,1,0.8,0.8,-0.3399
35,1,67," S2-19.jpg",1,1," blue","congruent",1,1,0.5039,0.7833,1,0.8,0.8,-0.2794
35,1,68," S1-15.jpg",2,1," blue","incongruent",1,0,0.504,0.9333,1,0.8,0.2,-0.4293
35,1,69," S2-19.jpg",1,2," yellow","incongruent",2,0,0.6868,0.9167,1,0.8,0.2,-0.2299
35,1,70," S1-15.jpg",2,3," red","neutral",1,0,0.5313,0.8,1,0.5,0.5,-0.2687
35,1,71," S2-19.jpg",1,3," red","neutral",1,1,0.4901,0.75,1,0.5,0.5,-0.2599
35,1,72," S1-15.jpg",2,2," yellow","congruent",2,1,0.5987,0.95,1,0.8,0.8,-0.3513
35,1,73," S2-19.jpg",1,1," blue","congruent",1,1,0.4012,0.8,1,0.8,0.8,-0.3988
35,1,74," S1-15.jpg",2,1," blue","incongruent",1,0,0.4338,0.85,1,0.8,0.2,-0.4162
35,1,75," S1-15.jpg",2,3," red","neutral",2,1,0.4349,0.7833,1,0.5,0.5,-0.3484
36,1,1," S4-20.jpg",2,1," yellow","incongruent",NA,0,NA,0.7667,1,0.8,0.2,NA
36,1,2," S4-20.jpg",2,3," red","neutral",1,0,1.6571,0.75,1,0.5,0.5,0.9071
36,1,3," S3-12.jpg",1,1," yellow","congruent",1,1,1.7795,0.9167,1,0.8,0.8,0.8628
36,1,4," S4-20.jpg",2,2," blue","congruent",2,1,1.6132,0.8667,1,0.8,0.8,0.7465
36,1,5," S3-12.jpg",1,1," yellow","congruent",1,1,1.5524,0.75,1,0.8,0.8,0.8024
36,1,6," S3-12.jpg",1,3," red","neutral",1,1,1.4506,0.85,1,0.5,0.5,0.6006
36,1,7," S4-20.jpg",2,2," blue","congruent",2,1,1.4266,1.0333,1,0.8,0.8,0.3933
36,1,8," S4-20.jpg",2,2," blue","congruent",2,1,1.2026,0.8,1,0.8,0.8,0.4026
36,1,9," S3-12.jpg",1,3," red","neutral",1,1,0.4657,0.7833,1,0.5,0.5,-0.3176
36,1,10," S4-20.jpg",2,3," red","neutral",1,0,0.4649,1.0167,1,0.5,0.5,-0.5518
36,1,11," S4-20.jpg",2,2," blue","congruent",2,1,1.2955,0.8333,1,0.8,0.8,0.4622
36,1,12," S4-20.jpg",2,2," blue","congruent",2,1,1.2477,0.85,1,0.8,0.8,0.3977
36,1,13," S3-12.jpg",1,1," yellow","congruent",1,1,1.872,1.2,1,0.8,0.8,0.672
36,1,14," S3-12.jpg",1,1," yellow","congruent",1,1,1.3908,0.9833,1,0.8,0.8,0.4075
36,1,15," S3-12.jpg",1,3," red","neutral",2,0,0.6863,1.1833,1,0.5,0.5,-0.497
36,1,16," S4-20.jpg",2,2," blue","congruent",1,0,2.0837,1.0833,1,0.8,0.8,1.0004
36,1,17," S3-12.jpg",1,2," blue","incongruent",1,1,1.7533,1.1,1,0.8,0.2,0.6533
36,1,18," S3-12.jpg",1,1," yellow","congruent",1,1,1.5674,0.9,1,0.8,0.8,0.6674
36,1,19," S4-20.jpg",2,2," blue","congruent",2,1,1.5887,0.8333,1,0.8,0.8,0.7554
36,1,20," S4-20.jpg",2,2," blue","congruent",2,1,1.2941,0.8,1,0.8,0.8,0.4941
36,1,21," S4-20.jpg",2,2," blue","congruent",2,1,1.2341,0.9333,1,0.8,0.8,0.3008
36,1,22," S3-12.jpg",1,1," yellow","congruent",1,1,1.5306,1,1,0.8,0.8,0.5306
36,1,23," S3-12.jpg",1,1," yellow","congruent",1,1,1.4008,0.85,1,0.8,0.8,0.5508
36,1,24," S3-12.jpg",1,1," yellow","congruent",1,1,1.213,0.7667,1,0.8,0.8,0.4463
36,1,25," S3-12.jpg",1,1," yellow","congruent",1,1,1.2241,0.8,1,0.8,0.8,0.4241
36,1,26," S3-12.jpg",1,2," blue","incongruent",1,1,1.4841,0.9667,1,0.8,0.2,0.5174
36,1,27," S3-12.jpg",1,1," yellow","congruent",1,1,1.7069,1,1,0.8,0.8,0.7069
36,1,28," S3-12.jpg",1,1," yellow","congruent",1,1,0.7178,1.5,1,0.8,0.8,-0.7822
36,1,29," S3-12.jpg",1,1," yellow","congruent",1,1,0.4207,1.15,1,0.8,0.8,-0.7293
36,1,30," S3-12.jpg",1,1," yellow","congruent",1,1,0.343,0.8833,1,0.8,0.8,-0.5403
36,1,31," S4-20.jpg",2,2," blue","congruent",2,1,0.7749,0.8833,1,0.8,0.8,-0.1084
36,1,32," S3-12.jpg",1,3," red","neutral",1,1,1.3186,0.7667,1,0.5,0.5,0.5519
36,1,33," S3-12.jpg",1,3," red","neutral",1,1,1.5773,0.9,1,0.5,0.5,0.6773
36,1,34," S4-20.jpg",2,3," red","neutral",2,1,1.5072,1.0167,1,0.5,0.5,0.4905
36,1,35," S3-12.jpg",1,1," yellow","congruent",1,1,1.6953,0.9333,1,0.8,0.8,0.762
36,1,36," S4-20.jpg",2,3," red","neutral",2,1,1.177,0.8167,1,0.5,0.5,0.3603
36,1,37," S3-12.jpg",1,1," yellow","congruent",1,1,0.6108,0.7833,1,0.8,0.8,-0.1725
36,1,38," S4-20.jpg",2,2," blue","congruent",2,1,1.2251,0.7833,1,0.8,0.8,0.4418
36,1,39," S3-12.jpg",1,2," blue","incongruent",1,1,1.6362,0.95,1,0.8,0.2,0.6862
36,1,40," S3-12.jpg",1,1," yellow","congruent",1,1,1.259,0.7833,1,0.8,0.8,0.4757
36,1,41," S3-12.jpg",1,3," red","neutral",1,1,1.413,0.8,1,0.5,0.5,0.613
36,1,42," S3-12.jpg",1,2," blue","incongruent",1,1,1.354,0.7667,1,0.8,0.2,0.5873
36,1,43," S4-20.jpg",2,2," blue","congruent",2,1,1.3665,0.7667,1,0.8,0.8,0.5998
36,1,44," S4-20.jpg",2,2," blue","congruent",2,1,1.5655,1.0667,1,0.8,0.8,0.4988
36,1,45," S3-12.jpg",1,3," red","neutral",1,1,0.8116,0.7833,1,0.5,0.5,0.0283
36,1,46," S4-20.jpg",2,2," blue","congruent",2,1,1.1659,0.8,1,0.8,0.8,0.3659
36,1,47," S4-20.jpg",2,3," red","neutral",2,1,2.2122,1.5,1,0.5,0.5,0.7122
36,1,48," S3-12.jpg",1,1," yellow","congruent",1,1,0.6024,0.8167,1,0.8,0.8,-0.2143
36,1,49," S3-12.jpg",1,1," yellow","congruent",1,1,0.5404,0.85,1,0.8,0.8,-0.3096
36,1,50," S3-12.jpg",1,1," yellow","congruent",1,1,0.4081,0.9333,1,0.8,0.8,-0.5252
36,1,51," S4-20.jpg",2,2," blue","congruent",2,1,1.2476,0.7667,1,0.8,0.8,0.4809
36,1,52," S4-20.jpg",2,2," blue","congruent",2,1,1.2127,0.8167,1,0.8,0.8,0.396
36,1,53," S4-20.jpg",2,3," red","neutral",2,1,1.3416,0.7833,1,0.5,0.5,0.5583
36,1,54," S3-12.jpg",1,3," red","neutral",2,0,1.1193,0.7667,1,0.5,0.5,0.3526
36,1,55," S3-12.jpg",1,1," yellow","congruent",1,1,1.5785,0.8667,1,0.8,0.8,0.7118
36,1,56," S3-12.jpg",1,1," yellow","congruent",1,1,0.3888,0.9,1,0.8,0.8,-0.5112
36,1,57," S4-20.jpg",2,1," yellow","incongruent",1,0,0.3971,0.7667,1,0.8,0.2,-0.3696
36,1,58," S3-12.jpg",1,3," red","neutral",1,1,2.0359,0.85,1,0.5,0.5,1.1859
36,1,59," S3-12.jpg",1,1," yellow","congruent",1,1,0.8615,1.1667,1,0.8,0.8,-0.3052
36,1,60," S4-20.jpg",2,1," yellow","incongruent",1,0,0.5072,0.8167,1,0.8,0.2,-0.3095
36,1,61," S3-12.jpg",1,1," yellow","congruent",1,1,1.2956,0.9167,1,0.8,0.8,0.3789
36,1,62," S4-20.jpg",2,3," red","neutral",2,1,0.5642,0.9667,1,0.5,0.5,-0.4025
36,1,63," S3-12.jpg",1,2," blue","incongruent",2,0,0.7125,0.9833,1,0.8,0.2,-0.2708
36,1,64," S3-12.jpg",1,3," red","neutral",1,1,0.7506,0.8167,1,0.5,0.5,-0.0660999999999999
36,1,65," S4-20.jpg",2,2," blue","congruent",2,1,0.4736,0.9,1,0.8,0.8,-0.4264
36,1,66," S4-20.jpg",2,1," yellow","incongruent",1,0,0.6108,1.0333,1,0.8,0.2,-0.4225
36,1,67," S4-20.jpg",2,2," blue","congruent",2,1,0.9541,0.8333,1,0.8,0.8,0.1208
36,1,68," S3-12.jpg",1,3," red","neutral",1,1,1.3895,0.8667,1,0.5,0.5,0.5228
36,1,69," S4-20.jpg",2,2," blue","congruent",2,1,0.6431,0.95,1,0.8,0.8,-0.3069
36,1,70," S4-20.jpg",2,2," blue","congruent",2,1,0.5486,1.05,1,0.8,0.8,-0.5014
36,1,71," S3-12.jpg",1,3," red","neutral",1,1,0.7352,0.8,1,0.5,0.5,-0.0648000000000001
36,1,72," S4-20.jpg",2,3," red","neutral",1,0,0.4093,1.1167,1,0.5,0.5,-0.7074
36,1,73," S3-12.jpg",1,3," red","neutral",2,0,0.4795,0.8667,1,0.5,0.5,-0.3872
36,1,74," S4-20.jpg",2,3," red","neutral",2,1,0.4515,0.8833,1,0.5,0.5,-0.4318
36,1,75," S4-20.jpg",2,2," blue","congruent",2,1,0.859,0.8,1,0.8,0.8,0.0589999999999999
36,1,76," S4-20.jpg",2,3," red","neutral",2,1,0.6764,0.7833,1,0.5,0.5,-0.1069
36,1,77," S4-20.jpg",2,2," blue","congruent",1,0,0.5789,1.1333,1,0.8,0.8,-0.5544
36,1,78," S3-12.jpg",1,3," red","neutral",2,0,0.5275,0.8333,1,0.5,0.5,-0.3058
36,1,79," S4-20.jpg",2,2," blue","congruent",2,1,0.5662,0.7833,1,0.8,0.8,-0.2171
36,1,80," S4-20.jpg",2,3," red","neutral",1,0,0.4121,0.8333,1,0.5,0.5,-0.4212
36,1,81," S4-20.jpg",2,3," red","neutral",2,1,0.772,0.8333,1,0.5,0.5,-0.0613
36,1,82," S4-20.jpg",2,2," blue","congruent",2,1,0.876,0.8667,1,0.8,0.8,0.00929999999999997
36,1,83," S4-20.jpg",2,1," yellow","incongruent",1,0,0.4322,0.8833,1,0.8,0.2,-0.4511
36,1,84," S3-12.jpg",1,2," blue","incongruent",2,0,0.9529,0.8,1,0.8,0.2,0.1529
36,1,85," S4-20.jpg",2,1," yellow","incongruent",2,1,0.6179,0.8167,1,0.8,0.2,-0.1988
36,1,86," S4-20.jpg",2,3," red","neutral",1,0,0.5415,0.8167,1,0.5,0.5,-0.2752
36,1,87," S4-20.jpg",2,3," red","neutral",2,1,0.7019,0.7667,1,0.5,0.5,-0.0648000000000001
36,1,88," S4-20.jpg",2,3," red","neutral",2,1,0.4937,0.9167,1,0.5,0.5,-0.423
36,1,89," S3-12.jpg",1,3," red","neutral",2,0,0.3783,0.95,1,0.5,0.5,-0.5717
36,1,90," S3-12.jpg",1,1," yellow","congruent",2,0,0.6902,0.7833,1,0.8,0.8,-0.0931
37,1,1," S3-12.jpg",2,2," purple","congruent",NA,0,NA,0.7833,1,0.8,0.8,NA
37,1,2," S4-20.jpg",1,1," orange","congruent",NA,0,NA,0.8,1,0.8,0.8,NA
37,1,3," S3-12.jpg",2,2," purple","congruent",NA,0,NA,0.8,1,0.8,0.8,NA
37,1,4," S3-12.jpg",2,3," green","neutral",NA,0,NA,0.8,1,0.5,0.5,NA
37,1,5," S4-20.jpg",1,1," orange","congruent",1,1,0.4935,0.8167,1,0.8,0.8,-0.3232
37,1,6," S4-20.jpg",1,1," orange","congruent",1,1,0.5258,0.75,1,0.8,0.8,-0.2242
37,1,7," S3-12.jpg",2,3," green","neutral",2,1,0.5817,1.1,1,0.5,0.5,-0.5183
37,1,8," S3-12.jpg",2,3," green","neutral",2,1,0.5006,0.8167,1,0.5,0.5,-0.3161
37,1,9," S4-20.jpg",1,1," orange","congruent",1,1,0.5376,0.7667,1,0.8,0.8,-0.2291
37,1,10," S3-12.jpg",2,3," green","neutral",2,1,0.489,1.1833,1,0.5,0.5,-0.6943
37,1,11," S4-20.jpg",1,1," orange","congruent",1,1,0.5106,1.5,1,0.8,0.8,-0.9894
37,1,12," S3-12.jpg",2,3," green","neutral",2,1,0.4753,0.8833,1,0.5,0.5,-0.408
37,1,13," S4-20.jpg",1,1," orange","congruent",1,1,0.5085,0.9167,1,0.8,0.8,-0.4082
37,1,14," S4-20.jpg",1,3," green","neutral",2,0,0.5528,0.95,1,0.5,0.5,-0.3972
37,1,15," S4-20.jpg",1,1," orange","congruent",1,1,0.5827,0.7667,1,0.8,0.8,-0.184
37,1,16," S4-20.jpg",1,1," orange","congruent",1,1,0.5113,0.8167,1,0.8,0.8,-0.3054
37,1,17," S3-12.jpg",2,2," purple","congruent",2,1,0.5146,0.9667,1,0.8,0.8,-0.4521
37,1,18," S4-20.jpg",1,3," green","neutral",1,1,0.5297,0.8833,1,0.5,0.5,-0.3536
37,1,19," S4-20.jpg",1,1," orange","congruent",1,1,0.4489,0.7667,1,0.8,0.8,-0.3178
37,1,20," S4-20.jpg",1,3," green","neutral",1,1,0.5503,1.05,1,0.5,0.5,-0.4997
37,1,21," S4-20.jpg",1,3," green","neutral",1,1,0.4579,0.9,1,0.5,0.5,-0.4421
37,1,22," S3-12.jpg",2,3," green","neutral",1,0,0.4742,0.9167,1,0.5,0.5,-0.4425
37,1,23," S3-12.jpg",2,2," purple","congruent",2,1,0.7578,1.5,1,0.8,0.8,-0.7422
37,1,24," S3-12.jpg",2,1," orange","incongruent",1,0,0.5683,0.8,1,0.8,0.2,-0.2317
37,1,25," S3-12.jpg",2,2," purple","congruent",2,1,0.8582,1.0833,1,0.8,0.8,-0.2251
37,1,26," S3-12.jpg",2,2," purple","congruent",2,1,0.3867,0.9333,1,0.8,0.8,-0.5466
37,1,27," S4-20.jpg",1,1," orange","congruent",1,1,0.471,0.8,1,0.8,0.8,-0.329
37,1,28," S4-20.jpg",1,1," orange","congruent",1,1,0.3863,0.7833,1,0.8,0.8,-0.397
37,1,29," S4-20.jpg",1,3," green","neutral",1,1,0.5113,0.7667,1,0.5,0.5,-0.2554
37,1,30," S4-20.jpg",1,2," purple","incongruent",2,0,0.6924,0.9833,1,0.8,0.2,-0.2909
37,1,31," S4-20.jpg",1,3," green","neutral",2,0,0.4904,0.75,1,0.5,0.5,-0.2596
37,1,32," S3-12.jpg",2,2," purple","congruent",1,0,0.2919,0.7667,1,0.8,0.8,-0.4748
37,1,33," S4-20.jpg",1,2," purple","incongruent",2,0,0.5133,0.8167,1,0.8,0.2,-0.3034
37,1,34," S3-12.jpg",2,3," green","neutral",2,1,0.6459,0.7833,1,0.5,0.5,-0.1374
37,1,35," S3-12.jpg",2,2," purple","congruent",1,0,0.5945,1.0667,1,0.8,0.8,-0.4722
37,1,36," S4-20.jpg",1,1," orange","congruent",1,1,0.5006,0.7667,1,0.8,0.8,-0.2661
37,1,37," S4-20.jpg",1,2," purple","incongruent",2,0,0.7807,0.8167,1,0.8,0.2,-0.036
37,1,38," S4-20.jpg",1,2," purple","incongruent",2,0,0.5178,0.8667,1,0.8,0.2,-0.3489
37,1,39," S4-20.jpg",1,3," green","neutral",2,0,0.9298,0.7833,1,0.5,0.5,0.1465
37,1,40," S3-12.jpg",2,2," purple","congruent",2,1,0.7032,0.9,1,0.8,0.8,-0.1968
37,1,41," S4-20.jpg",1,1," orange","congruent",1,1,0.4961,0.8667,1,0.8,0.8,-0.3706
37,1,42," S4-20.jpg",1,3," green","neutral",1,1,0.6922,0.8167,1,0.5,0.5,-0.1245
37,1,43," S3-12.jpg",2,2," purple","congruent",2,1,0.4314,1.1333,1,0.8,0.8,-0.7019
37,1,44," S3-12.jpg",2,3," green","neutral",1,0,0.4963,1.0167,1,0.5,0.5,-0.5204
37,1,45," S3-12.jpg",2,3," green","neutral",1,0,0.4022,0.8333,1,0.5,0.5,-0.4311
37,1,46," S4-20.jpg",1,1," orange","congruent",1,1,0.4827,0.8333,1,0.8,0.8,-0.3506
37,1,47," S3-12.jpg",2,2," purple","congruent",2,1,0.4887,0.8833,1,0.8,0.8,-0.3946
37,1,48," S4-20.jpg",1,3," green","neutral",1,1,0.5929,0.8667,1,0.5,0.5,-0.2738
37,1,49," S3-12.jpg",2,2," purple","congruent",2,1,0.3802,0.8333,1,0.8,0.8,-0.4531
37,1,50," S4-20.jpg",1,1," orange","congruent",1,1,0.2778,1.1167,1,0.8,0.8,-0.8389
37,1,51," S3-12.jpg",2,1," orange","incongruent",1,0,0.4715,1.0333,1,0.8,0.2,-0.5618
37,1,52," S4-20.jpg",1,3," green","neutral",1,1,0.7031,0.85,1,0.5,0.5,-0.1469
37,1,53," S3-12.jpg",2,3," green","neutral",1,0,0.4425,0.9667,1,0.5,0.5,-0.5242
37,1,54," S4-20.jpg",1,1," orange","congruent",1,1,0.9916,1,1,0.8,0.8,-0.00839999999999996
37,1,55," S3-12.jpg",2,2," purple","congruent",2,1,0.3474,0.85,1,0.8,0.8,-0.5026
37,1,56," S4-20.jpg",1,1," orange","congruent",1,1,0.2692,0.8333,1,0.8,0.8,-0.5641
37,1,57," S3-12.jpg",2,3," green","neutral",2,1,0.2281,0.8667,1,0.5,0.5,-0.6386
37,1,58," S4-20.jpg",1,2," purple","incongruent",1,1,0.2251,0.85,1,0.8,0.2,-0.6249
37,1,59," S4-20.jpg",1,3," green","neutral",2,0,0.6436,0.9,1,0.5,0.5,-0.2564
37,1,60," S3-12.jpg",2,2," purple","congruent",2,1,0.2757,0.9333,1,0.8,0.8,-0.6576
37,1,61," S3-12.jpg",2,2," purple","congruent",1,0,0.2407,0.7833,1,0.8,0.8,-0.5426
37,1,62," S4-20.jpg",1,1," orange","congruent",1,1,0.4637,0.7833,1,0.8,0.8,-0.3196
37,1,63," S3-12.jpg",2,2," purple","congruent",1,0,0.2131,1,1,0.8,0.8,-0.7869
37,1,64," S3-12.jpg",2,2," purple","congruent",2,1,0.5283,0.95,1,0.8,0.8,-0.4217
37,1,65," S3-12.jpg",2,1," orange","incongruent",1,0,0.4478,1.15,1,0.8,0.2,-0.7022
37,1,66," S4-20.jpg",1,1," orange","congruent",1,1,0.6669,0.8333,1,0.8,0.8,-0.1664
37,1,67," S4-20.jpg",1,3," green","neutral",2,0,0.4576,1.0167,1,0.5,0.5,-0.5591
37,1,68," S3-12.jpg",2,3," green","neutral",1,0,0.2939,0.85,1,0.5,0.5,-0.5561
37,1,69," S4-20.jpg",1,1," orange","congruent",2,0,0.2408,0.8833,1,0.8,0.8,-0.6425
37,1,70," S3-12.jpg",2,1," orange","incongruent",1,0,0.4083,0.95,1,0.8,0.2,-0.5417
37,1,71," S4-20.jpg",1,2," purple","incongruent",2,0,0.3373,0.8,1,0.8,0.2,-0.4627
37,1,72," S4-20.jpg",1,1," orange","congruent",1,1,0.3648,0.7833,1,0.8,0.8,-0.4185
37,1,73," S4-20.jpg",1,3," green","neutral",1,1,0.3303,0.8333,1,0.5,0.5,-0.503
37,1,74," S3-12.jpg",2,2," purple","congruent",1,0,0.2651,1.0333,1,0.8,0.8,-0.7682
37,1,75," S3-12.jpg",2,2," purple","congruent",1,0,0.3515,1.1667,1,0.8,0.8,-0.8152
37,1,76," S4-20.jpg",1,1," orange","congruent",1,1,0.4947,0.9,1,0.8,0.8,-0.4053
37,1,77," S4-20.jpg",1,1," orange","congruent",1,1,0.2849,1.2,1,0.8,0.8,-0.9151
37,1,78," S3-12.jpg",2,2," purple","congruent",2,1,0.3631,0.8667,1,0.8,0.8,-0.5036
37,1,79," S3-12.jpg",2,3," green","neutral",1,0,0.3519,0.8,1,0.5,0.5,-0.4481
37,1,80," S4-20.jpg",1,1," orange","congruent",2,0,0.4576,0.7667,1,0.8,0.8,-0.3091
37,1,81," S3-12.jpg",2,2," purple","congruent",1,0,0.5438,0.7833,1,0.8,0.8,-0.2395
37,1,82," S4-20.jpg",1,3," green","neutral",1,1,0.6053,0.9833,1,0.5,0.5,-0.378
37,1,83," S3-12.jpg",2,2," purple","congruent",2,1,0.7165,0.7667,1,0.8,0.8,-0.0502
37,1,84," S3-12.jpg",2,1," orange","incongruent",1,0,0.3601,0.85,1,0.8,0.2,-0.4899
37,1,85," S4-20.jpg",1,3," green","neutral",1,1,0.5404,0.8167,1,0.5,0.5,-0.2763
37,1,86," S3-12.jpg",2,3," green","neutral",1,0,0.5321,0.7833,1,0.5,0.5,-0.2512
37,1,87," S3-12.jpg",2,1," orange","incongruent",1,0,0.47,0.9333,1,0.8,0.2,-0.4633
37,1,88," S3-12.jpg",2,3," green","neutral",1,0,0.5915,0.8,1,0.5,0.5,-0.2085
37,1,89," S3-12.jpg",2,2," purple","congruent",1,0,1.0367,0.7667,1,0.8,0.8,0.27
37,1,90," S3-12.jpg",2,2," purple","congruent",1,0,0.2528,0.9167,1,0.8,0.8,-0.6639
38,1,1," S2-19.jpg",2,2," green","congruent",2,1,2.0306,1.1333,1,0.8,0.8,0.8973
38,1,2," S1-15.jpg",1,3," purple","neutral",1,1,1.4308,0.8667,1,0.5,0.5,0.5641
38,1,3," S2-19.jpg",2,3," purple","neutral",2,1,1.2476,0.7833,1,0.5,0.5,0.4643
38,1,4," S2-19.jpg",2,3," purple","neutral",2,1,1.4498,0.9833,1,0.5,0.5,0.4665
38,1,5," S1-15.jpg",1,1," orange","congruent",1,1,1.3432,0.85,1,0.8,0.8,0.4932
38,1,6," S2-19.jpg",2,1," orange","incongruent",2,1,1.2836,0.8,1,0.8,0.2,0.4836
38,1,7," S2-19.jpg",2,2," green","congruent",2,1,1.1651,0.7667,1,0.8,0.8,0.3984
38,1,8," S2-19.jpg",2,2," green","congruent",2,1,0.7717,1.0333,1,0.8,0.8,-0.2616
38,1,9," S2-19.jpg",2,2," green","congruent",1,0,0.8821,0.95,1,0.8,0.8,-0.0679
38,1,10," S1-15.jpg",1,2," green","incongruent",2,0,0.677,0.95,1,0.8,0.2,-0.273
38,1,11," S1-15.jpg",1,1," orange","congruent",1,1,1.1778,1.0333,1,0.8,0.8,0.1445
38,1,12," S2-19.jpg",2,2," green","congruent",2,1,1.566,1.1833,1,0.8,0.8,0.3827
38,1,13," S1-15.jpg",1,3," purple","neutral",1,1,1.6369,1.1167,1,0.5,0.5,0.5202
38,1,14," S1-15.jpg",1,1," orange","congruent",1,1,1.3553,0.8,1,0.8,0.8,0.5553
38,1,15," S1-15.jpg",1,3," purple","neutral",1,1,1.2598,0.7833,1,0.5,0.5,0.4765
38,1,16," S1-15.jpg",1,2," green","incongruent",2,0,1.0957,0.8333,1,0.8,0.2,0.2624
38,1,17," S1-15.jpg",1,1," orange","congruent",1,1,1.3191,0.8167,1,0.8,0.8,0.5024
38,1,18," S1-15.jpg",1,1," orange","congruent",1,1,1.2005,0.8667,1,0.8,0.8,0.3338
38,1,19," S1-15.jpg",1,2," green","incongruent",2,0,1.0355,0.75,1,0.8,0.2,0.2855
38,1,20," S2-19.jpg",2,2," green","congruent",2,1,1.4365,0.9,1,0.8,0.8,0.5365
38,1,21," S2-19.jpg",2,3," purple","neutral",2,1,1.2839,0.9333,1,0.5,0.5,0.3506
38,1,22," S1-15.jpg",1,1," orange","congruent",1,1,1.1527,0.7833,1,0.8,0.8,0.3694
38,1,23," S2-19.jpg",2,2," green","congruent",2,1,1.072,0.8333,1,0.8,0.8,0.2387
38,1,24," S1-15.jpg",1,2," green","incongruent",2,0,0.8233,0.9167,1,0.8,0.2,-0.0933999999999999
38,1,25," S1-15.jpg",1,3," purple","neutral",1,1,1.2599,0.7667,1,0.5,0.5,0.4932
38,1,26," S1-15.jpg",1,2," green","incongruent",2,0,1.4481,1.2,1,0.8,0.2,0.2481
38,1,27," S1-15.jpg",1,3," purple","neutral",1,1,1.4251,0.9167,1,0.5,0.5,0.5084
38,1,28," S2-19.jpg",2,2," green","congruent",2,1,1.2251,0.8833,1,0.8,0.8,0.3418
38,1,29," S1-15.jpg",1,1," orange","congruent",1,1,0.8474,0.75,1,0.8,0.8,0.0974
38,1,30," S1-15.jpg",1,3," purple","neutral",1,1,1.3893,0.85,1,0.5,0.5,0.5393
38,1,31," S2-19.jpg",2,2," green","congruent",2,1,1.0239,0.7667,1,0.8,0.8,0.2572
38,1,32," S2-19.jpg",2,2," green","congruent",2,1,1.009,0.7667,1,0.8,0.8,0.2423
38,1,33," S1-15.jpg",1,1," orange","congruent",1,1,0.9177,0.8667,1,0.8,0.8,0.0509999999999999
38,1,34," S2-19.jpg",2,2," green","congruent",2,1,0.7749,1,1,0.8,0.8,-0.2251
38,1,35," S2-19.jpg",2,2," green","congruent",2,1,0.5277,0.8167,1,0.8,0.8,-0.289
38,1,36," S1-15.jpg",1,1," orange","congruent",1,1,0.4999,1.15,1,0.8,0.8,-0.6501
38,1,37," S1-15.jpg",1,3," purple","neutral",1,1,1.4601,1.0167,1,0.5,0.5,0.4434
38,1,38," S1-15.jpg",1,3," purple","neutral",2,0,0.8942,0.7833,1,0.5,0.5,0.1109
38,1,39," S1-15.jpg",1,1," orange","congruent",1,1,0.5899,0.7667,1,0.8,0.8,-0.1768
38,1,40," S2-19.jpg",2,2," green","congruent",2,1,0.5469,0.7833,1,0.8,0.8,-0.2364
38,1,41," S1-15.jpg",1,1," orange","congruent",1,1,0.6175,0.8667,1,0.8,0.8,-0.2492
38,1,42," S1-15.jpg",1,1," orange","congruent",1,1,0.5009,0.8167,1,0.8,0.8,-0.3158
38,1,43," S1-15.jpg",1,3," purple","neutral",1,1,1.3429,0.8333,1,0.5,0.5,0.5096
38,1,44," S2-19.jpg",2,3," purple","neutral",1,0,0.6371,1.0667,1,0.5,0.5,-0.4296
38,1,45," S2-19.jpg",2,3," purple","neutral",2,1,1.2721,0.8833,1,0.5,0.5,0.3888
38,1,46," S2-19.jpg",2,1," orange","incongruent",1,0,0.6664,0.8833,1,0.8,0.2,-0.2169
38,1,47," S2-19.jpg",2,3," purple","neutral",2,1,1.2485,0.7667,1,0.5,0.5,0.4818
38,1,48," S1-15.jpg",1,3," purple","neutral",1,1,1.2499,0.85,1,0.5,0.5,0.3999
38,1,49," S1-15.jpg",1,1," orange","congruent",1,1,1.3529,0.8167,1,0.8,0.8,0.5362
38,1,50," S1-15.jpg",1,1," orange","congruent",1,1,0.6294,0.7667,1,0.8,0.8,-0.1373
38,1,51," S2-19.jpg",2,2," green","congruent",2,1,0.5086,0.9667,1,0.8,0.8,-0.4581
38,1,52," S2-19.jpg",2,2," green","congruent",2,1,0.4419,1.05,1,0.8,0.8,-0.6081
38,1,53," S2-19.jpg",2,2," green","congruent",2,1,0.4402,0.85,1,0.8,0.8,-0.4098
38,1,54," S2-19.jpg",2,2," green","congruent",2,1,0.4282,0.7667,1,0.8,0.8,-0.3385
38,1,55," S1-15.jpg",1,1," orange","congruent",1,1,0.394,0.95,1,0.8,0.8,-0.556
38,1,56," S1-15.jpg",1,3," purple","neutral",1,1,1.2138,0.8833,1,0.5,0.5,0.3305
38,1,57," S2-19.jpg",2,3," purple","neutral",1,0,0.8663,0.9,1,0.5,0.5,-0.0337000000000001
38,1,58," S1-15.jpg",1,3," purple","neutral",1,1,0.7391,0.8333,1,0.5,0.5,-0.0942000000000001
38,1,59," S2-19.jpg",2,2," green","congruent",2,1,0.4603,0.8167,1,0.8,0.8,-0.3564
38,1,60," S2-19.jpg",2,2," green","congruent",2,1,0.478,0.8,1,0.8,0.8,-0.322
38,1,61," S1-15.jpg",1,3," purple","neutral",1,1,1.1428,0.8333,1,0.5,0.5,0.3095
38,1,62," S1-15.jpg",1,1," orange","congruent",1,1,0.7107,1.0167,1,0.8,0.8,-0.306
38,1,63," S2-19.jpg",2,2," green","congruent",2,1,0.5303,1.1667,1,0.8,0.8,-0.6364
38,1,64," S1-15.jpg",1,2," green","incongruent",2,0,0.5193,0.7833,1,0.8,0.2,-0.264
38,1,65," S2-19.jpg",2,3," purple","neutral",2,1,0.8317,0.7667,1,0.5,0.5,0.065
38,1,66," S1-15.jpg",1,1," orange","congruent",1,1,0.5279,1.5,1,0.8,0.8,-0.9721
38,1,67," S2-19.jpg",2,2," green","congruent",2,1,0.7359,0.8,1,0.8,0.8,-0.0641
38,1,68," S1-15.jpg",1,1," orange","congruent",1,1,0.3626,0.8,1,0.8,0.8,-0.4374
38,1,69," S2-19.jpg",2,3," purple","neutral",2,1,1.3545,0.9333,1,0.5,0.5,0.4212
38,1,70," S1-15.jpg",1,1," orange","congruent",1,1,0.4411,0.9,1,0.8,0.8,-0.4589
38,1,71," S2-19.jpg",2,3," purple","neutral",2,1,1.5539,1.0833,1,0.5,0.5,0.4706
38,1,72," S2-19.jpg",2,3," purple","neutral",2,1,1.5773,1,1,0.5,0.5,0.5773
38,1,73," S2-19.jpg",2,3," purple","neutral",2,1,0.4445,1.1,1,0.5,0.5,-0.6555
38,1,74," S2-19.jpg",2,1," orange","incongruent",1,0,0.6768,0.8667,1,0.8,0.2,-0.1899
38,1,75," S2-19.jpg",2,1," orange","incongruent",1,0,0.6076,0.9667,1,0.8,0.2,-0.3591
38,1,76," S2-19.jpg",2,2," green","congruent",2,1,0.6474,0.85,1,0.8,0.8,-0.2026
38,1,77," S2-19.jpg",2,1," orange","incongruent",1,0,0.4802,0.8167,1,0.8,0.2,-0.3365
38,1,78," S1-15.jpg",1,3," purple","neutral",2,0,0.5484,0.9167,1,0.5,0.5,-0.3683
38,1,79," S2-19.jpg",2,3," purple","neutral",1,0,0.6002,0.7833,1,0.5,0.5,-0.1831
38,1,80," S1-15.jpg",1,1," orange","congruent",1,1,1.059,0.8167,1,0.8,0.8,0.2423
38,1,81," S1-15.jpg",1,1," orange","congruent",1,1,0.4745,0.7833,1,0.8,0.8,-0.3088
38,1,82," S2-19.jpg",2,3," purple","neutral",1,0,0.8874,0.9,1,0.5,0.5,-0.0126000000000001
38,1,83," S2-19.jpg",2,2," green","congruent",2,1,0.3442,0.8,1,0.8,0.8,-0.4558
38,1,84," S2-19.jpg",2,1," orange","incongruent",1,0,0.4027,0.8,1,0.8,0.2,-0.3973
38,1,85," S2-19.jpg",2,3," purple","neutral",2,1,1.3905,0.8333,1,0.5,0.5,0.5572
38,1,86," S1-15.jpg",1,1," orange","congruent",1,1,0.6191,0.8,1,0.8,0.8,-0.1809
38,1,87," S1-15.jpg",1,1," orange","congruent",1,1,0.5742,1.5,1,0.8,0.8,-0.9258
38,1,88," S1-15.jpg",1,3," purple","neutral",1,1,1.2134,0.7833,1,0.5,0.5,0.4301
38,1,89," S1-15.jpg",1,1," orange","congruent",1,1,0.7254,0.9333,1,0.8,0.8,-0.2079
38,1,90," S2-19.jpg",2,2," green","congruent",2,1,0.2925,0.9833,1,0.8,0.8,-0.6908
39,1,1," S3-12.jpg",1,3," red","neutral",NA,0,NA,0.95,1,0.5,0.5,NA
39,1,2," S4-20.jpg",2,2," blue","congruent",2,1,1.4938,0.8,1,0.8,0.8,0.6938
39,1,3," S4-20.jpg",2,2," blue","congruent",2,1,1.2153,0.8833,1,0.8,0.8,0.332
39,1,4," S4-20.jpg",2,2," blue","congruent",2,1,1.6859,1.2,1,0.8,0.8,0.4859
39,1,5," S4-20.jpg",2,2," blue","congruent",2,1,0.2631,0.8167,1,0.8,0.8,-0.5536
39,1,6," S3-12.jpg",1,1," yellow","congruent",1,1,1.5194,0.8667,1,0.8,0.8,0.6527
39,1,7," S4-20.jpg",2,3," red","neutral",1,0,1.1776,0.9833,1,0.5,0.5,0.1943
39,1,8," S4-20.jpg",2,2," blue","congruent",2,1,1.2476,0.8667,1,0.8,0.8,0.3809
39,1,9," S4-20.jpg",2,2," blue","congruent",2,1,0.3735,0.7667,1,0.8,0.8,-0.3932
39,1,10," S3-12.jpg",1,3," red","neutral",2,0,1.4599,0.95,1,0.5,0.5,0.5099
39,1,11," S4-20.jpg",2,2," blue","congruent",2,1,0.8584,0.8333,1,0.8,0.8,0.0251
39,1,12," S3-12.jpg",1,1," yellow","congruent",1,1,1.4603,0.8833,1,0.8,0.8,0.577
39,1,13," S3-12.jpg",1,1," yellow","congruent",1,1,1.2484,0.9,1,0.8,0.8,0.3484
39,1,14," S3-12.jpg",1,1," yellow","congruent",1,1,1.1541,0.8,1,0.8,0.8,0.3541
39,1,15," S4-20.jpg",2,2," blue","congruent",2,1,0.4618,0.7667,1,0.8,0.8,-0.3049
39,1,16," S3-12.jpg",1,2," blue","incongruent",2,0,0.4508,0.9667,1,0.8,0.2,-0.5159
39,1,17," S4-20.jpg",2,2," blue","congruent",2,1,1.2834,0.75,1,0.8,0.8,0.5334
39,1,18," S3-12.jpg",1,2," blue","incongruent",2,0,0.4799,1.0167,1,0.8,0.2,-0.5368
39,1,19," S3-12.jpg",1,1," yellow","congruent",1,1,1.4483,0.9167,1,0.8,0.8,0.5316
39,1,20," S4-20.jpg",2,2," blue","congruent",2,1,1.4597,0.9667,1,0.8,0.8,0.493
39,1,21," S4-20.jpg",2,2," blue","congruent",2,1,1.3779,0.8,1,0.8,0.8,0.5779
39,1,22," S3-12.jpg",1,1," yellow","congruent",1,1,1.3541,0.8,1,0.8,0.8,0.5541
39,1,23," S3-12.jpg",1,3," red","neutral",1,1,1.3662,0.9,1,0.5,0.5,0.4662
39,1,24," S4-20.jpg",2,2," blue","congruent",2,1,1.1303,0.7833,1,0.8,0.8,0.347
39,1,25," S3-12.jpg",1,3," red","neutral",1,1,1.4128,0.7833,1,0.5,0.5,0.6295
39,1,26," S4-20.jpg",2,3," red","neutral",2,1,1.7772,1.1333,1,0.5,0.5,0.6439
39,1,27," S4-20.jpg",2,3," red","neutral",2,1,1.5552,0.9,1,0.5,0.5,0.6552
39,1,28," S3-12.jpg",1,3," red","neutral",1,1,1.4714,0.8167,1,0.5,0.5,0.6547
39,1,29," S4-20.jpg",2,2," blue","congruent",2,1,1.554,1.0167,1,0.8,0.8,0.5373
39,1,30," S3-12.jpg",1,3," red","neutral",1,1,1.3543,0.8,1,0.5,0.5,0.5543
39,1,31," S4-20.jpg",2,3," red","neutral",2,1,1.412,0.7833,1,0.5,0.5,0.6287
39,1,32," S4-20.jpg",2,1," yellow","incongruent",2,1,1.4721,0.8333,1,0.8,0.2,0.6388
39,1,33," S4-20.jpg",2,2," blue","congruent",2,1,1.305,0.7667,1,0.8,0.8,0.5383
39,1,34," S3-12.jpg",1,3," red","neutral",1,1,1.519,0.9167,1,0.5,0.5,0.6023
39,1,35," S4-20.jpg",2,2," blue","congruent",2,1,1.4127,0.85,1,0.8,0.8,0.5627
39,1,36," S4-20.jpg",2,3," red","neutral",2,1,1.4369,0.85,1,0.5,0.5,0.5869
39,1,37," S3-12.jpg",1,1," yellow","congruent",1,1,1.3781,0.7667,1,0.8,0.8,0.6114
39,1,38," S4-20.jpg",2,3," red","neutral",2,1,1.2245,0.7833,1,0.5,0.5,0.4412
39,1,39," S4-20.jpg",2,3," red","neutral",2,1,1.4366,0.8667,1,0.5,0.5,0.5699
39,1,40," S3-12.jpg",1,1," yellow","congruent",1,1,1.2843,0.7833,1,0.8,0.8,0.501
39,1,41," S4-20.jpg",2,2," blue","congruent",2,1,1.4013,1,1,0.8,0.8,0.4013
39,1,42," S3-12.jpg",1,1," yellow","congruent",1,1,1.4133,0.95,1,0.8,0.8,0.4633
39,1,43," S3-12.jpg",1,1," yellow","congruent",1,1,1.4606,0.9333,1,0.8,0.8,0.5273
39,1,44," S4-20.jpg",2,3," red","neutral",2,1,1.2834,0.7667,1,0.5,0.5,0.5167
39,1,45," S3-12.jpg",1,3," red","neutral",1,1,1.5192,0.9833,1,0.5,0.5,0.5359
39,1,46," S3-12.jpg",1,1," yellow","congruent",1,1,1.3308,0.7833,1,0.8,0.8,0.5475
39,1,47," S4-20.jpg",2,1," yellow","incongruent",2,1,1.6604,0.9,1,0.8,0.2,0.7604
39,1,48," S3-12.jpg",1,2," blue","incongruent",1,1,1.4246,0.8333,1,0.8,0.2,0.5913
39,1,49," S3-12.jpg",1,1," yellow","congruent",1,1,1.5309,0.8167,1,0.8,0.8,0.7142
39,1,50," S3-12.jpg",1,1," yellow","congruent",1,1,1.2497,0.8667,1,0.8,0.8,0.383
39,1,51," S3-12.jpg",1,3," red","neutral",1,1,1.7076,1.15,1,0.5,0.5,0.5576
39,1,52," S3-12.jpg",1,1," yellow","congruent",1,1,0.6012,0.7667,1,0.8,0.8,-0.1655
39,1,53," S3-12.jpg",1,1," yellow","congruent",1,1,0.3761,1.0333,1,0.8,0.8,-0.6572
39,1,54," S4-20.jpg",2,1," yellow","incongruent",1,0,0.2968,1.1667,1,0.8,0.2,-0.8699
39,1,55," S4-20.jpg",2,3," red","neutral",2,1,1.3659,0.8167,1,0.5,0.5,0.5492
39,1,56," S3-12.jpg",1,3," red","neutral",2,0,0.8712,0.8167,1,0.5,0.5,0.0545
39,1,57," S4-20.jpg",2,2," blue","congruent",2,1,0.5228,0.8167,1,0.8,0.8,-0.2939
39,1,58," S3-12.jpg",1,3," red","neutral",1,1,1.2133,0.8333,1,0.5,0.5,0.38
39,1,59," S3-12.jpg",1,1," yellow","congruent",1,1,1.2016,0.7833,1,0.8,0.8,0.4183
39,1,60," S4-20.jpg",2,3," red","neutral",2,1,2.0723,1.5,1,0.5,0.5,0.5723
39,1,61," S4-20.jpg",2,2," blue","congruent",2,1,0.0012,0.85,1,0.8,0.8,-0.8488
39,1,62," S4-20.jpg",2,2," blue","congruent",2,1,2.448,1.5,1,0.8,0.8,0.948
39,1,63," S4-20.jpg",2,3," red","neutral",2,1,1.3423,0.8,1,0.5,0.5,0.5423
39,1,64," S4-20.jpg",2,2," blue","congruent",2,1,1.2725,0.8167,1,0.8,0.8,0.4558
39,1,65," S4-20.jpg",2,3," red","neutral",2,1,1.2831,0.8333,1,0.5,0.5,0.4498
39,1,66," S3-12.jpg",1,3," red","neutral",1,1,1.5899,1,1,0.5,0.5,0.5899
39,1,67," S3-12.jpg",1,1," yellow","congruent",1,1,1.2838,0.8833,1,0.8,0.8,0.4005
39,1,68," S4-20.jpg",2,1," yellow","incongruent",2,1,1.6021,1.0333,1,0.8,0.2,0.5688
39,1,69," S3-12.jpg",1,1," yellow","congruent",1,1,1.566,0.9333,1,0.8,0.8,0.6327
39,1,70," S4-20.jpg",2,3," red","neutral",2,1,1.5681,0.9167,1,0.5,0.5,0.6514
39,1,71," S3-12.jpg",1,2," blue","incongruent",1,1,1.3427,0.8,1,0.8,0.2,0.5427
39,1,72," S3-12.jpg",1,1," yellow","congruent",1,1,1.6368,0.7667,1,0.8,0.8,0.8701
39,1,73," S4-20.jpg",2,2," blue","congruent",2,1,1.4831,1.0833,1,0.8,0.8,0.3998
39,1,74," S3-12.jpg",1,1," yellow","congruent",1,1,1.5539,0.7833,1,0.8,0.8,0.7706
39,1,75," S4-20.jpg",2,1," yellow","incongruent",2,1,1.8015,1.1167,1,0.8,0.2,0.6848
39,1,76," S3-12.jpg",1,2," blue","incongruent",1,1,1.7889,0.75,1,0.8,0.2,1.0389
39,1,77," S3-12.jpg",1,3," red","neutral",1,1,1.9074,1.1833,1,0.5,0.5,0.7241
39,1,78," S3-12.jpg",1,2," blue","incongruent",1,1,1.7073,0.8833,1,0.8,0.2,0.824
39,1,79," S4-20.jpg",2,2," blue","congruent",2,1,1.378,0.7667,1,0.8,0.8,0.6113
39,1,80," S3-12.jpg",1,1," yellow","congruent",1,1,1.5428,0.8667,1,0.8,0.8,0.6761
39,1,81," S3-12.jpg",1,1," yellow","congruent",1,1,1.6218,0.85,1,0.8,0.8,0.7718
39,1,82," S3-12.jpg",1,1," yellow","congruent",1,1,1.3888,0.7833,1,0.8,0.8,0.6055
39,1,83," S4-20.jpg",2,2," blue","congruent",2,1,1.5538,0.8333,1,0.8,0.8,0.7205
39,1,84," S3-12.jpg",1,1," yellow","congruent",1,1,1.6581,1.0667,1,0.8,0.8,0.5914
39,1,85," S4-20.jpg",2,1," yellow","incongruent",2,1,1.3658,0.8,1,0.8,0.2,0.5658
39,1,86," S4-20.jpg",2,2," blue","congruent",2,1,1.354,0.85,1,0.8,0.8,0.504
39,1,87," S3-12.jpg",1,3," red","neutral",1,1,1.6705,1.1,1,0.5,0.5,0.5705
39,1,88," S3-12.jpg",1,3," red","neutral",1,1,1.5893,1.05,1,0.5,0.5,0.5393
39,1,89," S4-20.jpg",2,3," red","neutral",2,1,1.7655,0.9333,1,0.5,0.5,0.8322
39,1,90," S4-20.jpg",2,3," red","neutral",2,1,0.3365,0.7667,1,0.5,0.5,-0.4302
40,1,1," S2-19.jpg",2,3," yellow","neutral",NA,0,NA,0.8833,1,0.5,0.5,NA
40,1,2," S2-19.jpg",2,1," blue","incongruent",2,1,1.8084,0.8167,1,0.8,0.2,0.9917
40,1,3," S1-15.jpg",1,1," blue","congruent",1,1,1.3322,0.85,1,0.8,0.8,0.4822
40,1,4," S2-19.jpg",2,2," red","congruent",2,1,1.3915,0.7667,1,0.8,0.8,0.6248
40,1,5," S1-15.jpg",1,2," red","incongruent",1,1,1.2957,0.7667,1,0.8,0.2,0.529
40,1,6," S2-19.jpg",2,2," red","congruent",2,1,1.5681,1.0333,1,0.8,0.8,0.5348
40,1,7," S2-19.jpg",2,2," red","congruent",2,1,1.5546,0.9167,1,0.8,0.8,0.6379
40,1,8," S1-15.jpg",1,3," yellow","neutral",1,1,1.4724,0.8167,1,0.5,0.5,0.6557
40,1,9," S1-15.jpg",1,2," red","incongruent",1,1,1.4827,0.7833,1,0.8,0.2,0.6994
40,1,10," S2-19.jpg",2,3," yellow","neutral",2,1,1.448,0.7667,1,0.5,0.5,0.6813
40,1,11," S2-19.jpg",2,3," yellow","neutral",2,1,1.4721,1,1,0.5,0.5,0.4721
40,1,12," S1-15.jpg",1,1," blue","congruent",1,1,1.2952,0.7833,1,0.8,0.8,0.5119
40,1,13," S2-19.jpg",2,2," red","congruent",2,1,1.4243,0.85,1,0.8,0.8,0.5743
40,1,14," S1-15.jpg",1,3," yellow","neutral",1,1,1.3188,0.7833,1,0.5,0.5,0.5355
40,1,15," S1-15.jpg",1,3," yellow","neutral",1,1,1.4373,0.85,1,0.5,0.5,0.5873
40,1,16," S2-19.jpg",2,3," yellow","neutral",2,1,1.38,0.7833,1,0.5,0.5,0.5967
40,1,17," S2-19.jpg",2,1," blue","incongruent",2,1,1.6612,1.0167,1,0.8,0.2,0.6445
40,1,18," S2-19.jpg",2,3," yellow","neutral",2,1,1.3779,0.7833,1,0.5,0.5,0.5946
40,1,19," S2-19.jpg",2,2," red","congruent",2,1,1.3541,0.7667,1,0.8,0.8,0.5874
40,1,20," S1-15.jpg",1,1," blue","congruent",1,1,1.413,0.8333,1,0.8,0.8,0.5797
40,1,21," S2-19.jpg",2,2," red","congruent",2,1,1.5183,0.8667,1,0.8,0.8,0.6516
40,1,22," S1-15.jpg",1,3," yellow","neutral",1,1,1.6708,0.9667,1,0.5,0.5,0.7041
40,1,23," S1-15.jpg",1,1," blue","congruent",1,1,1.5773,0.7833,1,0.8,0.8,0.794
40,1,24," S1-15.jpg",1,2," red","incongruent",1,1,1.6129,0.9333,1,0.8,0.2,0.6796
40,1,25," S2-19.jpg",2,1," blue","incongruent",2,1,1.4362,0.8167,1,0.8,0.2,0.6195
40,1,26," S2-19.jpg",2,2," red","congruent",2,1,1.318,0.7833,1,0.8,0.8,0.5347
40,1,27," S2-19.jpg",2,2," red","congruent",2,1,1.3545,0.9,1,0.8,0.8,0.4545
40,1,28," S2-19.jpg",2,3," yellow","neutral",2,1,2.3065,1.5,1,0.5,0.5,0.8065
40,1,29," S1-15.jpg",1,1," blue","congruent",1,1,1.2361,0.8167,1,0.8,0.8,0.4194
40,1,30," S2-19.jpg",2,2," red","congruent",2,1,1.4724,0.9,1,0.8,0.8,0.5724
40,1,31," S1-15.jpg",1,1," blue","congruent",1,1,1.4594,0.9333,1,0.8,0.8,0.5261
40,1,32," S2-19.jpg",2,3," yellow","neutral",2,1,1.8482,1.1667,1,0.5,0.5,0.6815
40,1,33," S2-19.jpg",2,2," red","congruent",2,1,1.495,0.9167,1,0.8,0.8,0.5783
40,1,34," S2-19.jpg",2,2," red","congruent",2,1,2.0359,1.5,1,0.8,0.8,0.5359
40,1,35," S1-15.jpg",1,3," yellow","neutral",1,1,1.3201,0.8167,1,0.5,0.5,0.5034
40,1,36," S2-19.jpg",2,2," red","congruent",2,1,1.2719,0.7667,1,0.8,0.8,0.5052
40,1,37," S2-19.jpg",2,3," yellow","neutral",2,1,1.7761,1.0667,1,0.5,0.5,0.7094
40,1,38," S2-19.jpg",2,1," blue","incongruent",2,1,1.9535,0.7667,1,0.8,0.2,1.1868
40,1,39," S1-15.jpg",1,1," blue","congruent",1,1,1.5185,0.8667,1,0.8,0.8,0.6518
40,1,40," S1-15.jpg",1,1," blue","congruent",1,1,1.483,0.8833,1,0.8,0.8,0.5997
40,1,41," S1-15.jpg",1,3," yellow","neutral",1,1,1.3662,0.8,1,0.5,0.5,0.5662
40,1,42," S2-19.jpg",2,2," red","congruent",2,1,1.5311,0.8333,1,0.8,0.8,0.6978
40,1,43," S1-15.jpg",1,3," yellow","neutral",1,1,1.3075,0.7833,1,0.5,0.5,0.5242
40,1,44," S2-19.jpg",2,3," yellow","neutral",2,1,1.6489,0.9333,1,0.5,0.5,0.7156
40,1,45," S1-15.jpg",1,2," red","incongruent",1,1,1.6015,1,1,0.8,0.2,0.6015
40,1,46," S2-19.jpg",2,1," blue","incongruent",2,1,1.424,0.7833,1,0.8,0.2,0.6407
40,1,47," S2-19.jpg",2,2," red","congruent",2,1,1.4859,1.1167,1,0.8,0.8,0.3692
40,1,48," S1-15.jpg",1,3," yellow","neutral",2,0,0.8573,1.15,1,0.5,0.5,-0.2927
40,1,49," S1-15.jpg",1,1," blue","congruent",1,1,0.6754,1.0833,1,0.8,0.8,-0.4079
40,1,50," S1-15.jpg",1,1," blue","congruent",1,1,0.5709,1.05,1,0.8,0.8,-0.4791
40,1,51," S2-19.jpg",2,2," red","congruent",2,1,0.4517,0.7667,1,0.8,0.8,-0.315
40,1,52," S2-19.jpg",2,2," red","congruent",2,1,0.4002,0.9667,1,0.8,0.8,-0.5665
40,1,53," S2-19.jpg",2,1," blue","incongruent",1,0,0.6542,0.95,1,0.8,0.2,-0.2958
40,1,54," S2-19.jpg",2,3," yellow","neutral",2,1,1.4005,0.9,1,0.5,0.5,0.5005
40,1,55," S1-15.jpg",1,1," blue","congruent",1,1,1.2358,0.8833,1,0.8,0.8,0.3525
40,1,56," S2-19.jpg",2,3," yellow","neutral",2,1,1.6017,1.1,1,0.5,0.5,0.5017
40,1,57," S1-15.jpg",1,1," blue","congruent",1,1,1.4483,0.95,1,0.8,0.8,0.4983
40,1,58," S2-19.jpg",2,3," yellow","neutral",2,1,1.4482,0.8,1,0.5,0.5,0.6482
40,1,59," S1-15.jpg",1,3," yellow","neutral",1,1,1.3187,0.7667,1,0.5,0.5,0.552
40,1,60," S1-15.jpg",1,1," blue","congruent",1,1,1.5067,0.85,1,0.8,0.8,0.6567
40,1,61," S1-15.jpg",1,1," blue","congruent",1,1,1.3187,0.8,1,0.8,0.8,0.5187
40,1,62," S1-15.jpg",1,2," red","incongruent",1,1,1.2835,0.8,1,0.8,0.2,0.4835
40,1,63," S2-19.jpg",2,2," red","congruent",2,1,1.366,0.8833,1,0.8,0.8,0.4827
40,1,64," S1-15.jpg",1,1," blue","congruent",1,1,1.8135,1.1833,1,0.8,0.8,0.6302
40,1,65," S2-19.jpg",2,2," red","congruent",2,1,0.5718,1.1333,1,0.8,0.8,-0.5615
40,1,66," S1-15.jpg",1,3," yellow","neutral",2,0,0.8258,0.9,1,0.5,0.5,-0.0742
40,1,67," S1-15.jpg",1,3," yellow","neutral",1,1,1.4723,0.8667,1,0.5,0.5,0.6056
40,1,68," S1-15.jpg",1,1," blue","congruent",1,1,0.8287,1.2,1,0.8,0.8,-0.3713
40,1,69," S1-15.jpg",1,1," blue","congruent",2,0,1.0309,0.8,1,0.8,0.8,0.2309
40,1,70," S1-15.jpg",1,1," blue","congruent",1,1,1.4479,0.9833,1,0.8,0.8,0.4646
40,1,71," S2-19.jpg",2,3," yellow","neutral",2,1,1.4839,0.95,1,0.5,0.5,0.5339
40,1,72," S1-15.jpg",1,1," blue","congruent",1,1,0.8019,0.75,1,0.8,0.8,0.0518999999999999
40,1,73," S1-15.jpg",1,1," blue","congruent",1,1,0.6241,0.9167,1,0.8,0.8,-0.2926
40,1,74," S1-15.jpg",1,1," blue","congruent",2,0,0.708,0.8667,1,0.8,0.8,-0.1587
40,1,75," S2-19.jpg",2,2," red","congruent",2,1,0.6391,0.8333,1,0.8,0.8,-0.1942
40,1,76," S2-19.jpg",2,3," yellow","neutral",2,1,0.8943,0.75,1,0.5,0.5,0.1443
40,1,77," S1-15.jpg",1,3," yellow","neutral",2,0,0.695,0.8,1,0.5,0.5,-0.105
40,1,78," S1-15.jpg",1,3," yellow","neutral",2,0,0.4518,0.8667,1,0.5,0.5,-0.4149
40,1,79," S1-15.jpg",1,3," yellow","neutral",1,1,1.2611,0.7667,1,0.5,0.5,0.4944
40,1,80," S1-15.jpg",1,1," blue","congruent",1,1,1.5664,0.9833,1,0.8,0.8,0.5831
40,1,81," S2-19.jpg",2,2," red","congruent",2,1,0.7949,0.8333,1,0.8,0.8,-0.0384
40,1,82," S2-19.jpg",2,2," red","congruent",2,1,0.9177,0.8167,1,0.8,0.8,0.101
40,1,83," S2-19.jpg",2,2," red","congruent",2,1,0.6806,0.8333,1,0.8,0.8,-0.1527
40,1,84," S2-19.jpg",2,2," red","congruent",2,1,0.6374,0.8333,1,0.8,0.8,-0.1959
40,1,85," S1-15.jpg",1,3," yellow","neutral",2,0,0.5011,1.0167,1,0.5,0.5,-0.5156
40,1,86," S1-15.jpg",1,2," red","incongruent",2,0,0.5121,0.8167,1,0.8,0.2,-0.3046
40,1,87," S1-15.jpg",1,1," blue","congruent",1,1,0.6531,0.85,1,0.8,0.8,-0.1969
40,1,88," S2-19.jpg",2,3," yellow","neutral",2,1,1.8008,1.0333,1,0.5,0.5,0.7675
40,1,89," S2-19.jpg",2,2," red","congruent",2,1,1.531,0.8,1,0.8,0.8,0.731
40,1,90," S1-15.jpg",1,1," blue","congruent",1,1,1.2987,0.8,1,0.8,0.8,0.4987
41,1,1," S2-19.jpg",2,2," yellow","congruent",NA,0,NA,0.7833,1,0.8,0.8,NA
41,1,2," S2-19.jpg",2,3," blue","neutral",2,1,1.8583,1.0833,1,0.5,0.5,0.775
41,1,3," S2-19.jpg",2,1," red","incongruent",2,1,1.5004,0.9333,1,0.8,0.2,0.5671
41,1,4," S1-15.jpg",1,1," red","congruent",1,1,1.4384,0.7833,1,0.8,0.8,0.6551
41,1,5," S1-15.jpg",1,1," red","congruent",1,1,2.6919,1.5,1,0.8,0.8,1.1919
41,1,6," S1-15.jpg",1,3," blue","neutral",1,1,1.5447,0.8,1,0.5,0.5,0.7447
41,1,7," S2-19.jpg",2,3," blue","neutral",2,1,1.2283,0.7667,1,0.5,0.5,0.4616
41,1,8," S1-15.jpg",1,1," red","congruent",2,0,0.366,0.85,1,0.8,0.8,-0.484
41,1,9," S1-15.jpg",1,2," yellow","incongruent",1,1,1.7091,0.8,1,0.8,0.2,0.9091
41,1,10," S2-19.jpg",2,3," blue","neutral",2,1,1.7068,1.0167,1,0.5,0.5,0.6901
41,1,11," S2-19.jpg",2,2," yellow","congruent",NA,0,NA,0.8833,1,0.8,0.8,NA
41,1,12," S2-19.jpg",2,1," red","incongruent",2,1,1.4106,0.8833,1,0.8,0.2,0.5273
41,1,13," S2-19.jpg",2,3," blue","neutral",2,1,1.4594,0.9167,1,0.5,0.5,0.5427
41,1,14," S1-15.jpg",1,3," blue","neutral",1,1,1.7314,0.9333,1,0.5,0.5,0.7981
41,1,15," S2-19.jpg",2,3," blue","neutral",2,1,1.4596,0.7667,1,0.5,0.5,0.6929
41,1,16," S2-19.jpg",2,2," yellow","congruent",2,1,1.3309,0.75,1,0.8,0.8,0.5809
41,1,17," S1-15.jpg",1,1," red","congruent",1,1,1.4136,0.9,1,0.8,0.8,0.5136
41,1,18," S2-19.jpg",2,2," yellow","congruent",2,1,1.3655,0.7833,1,0.8,0.8,0.5822
41,1,19," S2-19.jpg",2,2," yellow","congruent",2,1,1.4829,0.8667,1,0.8,0.8,0.6162
41,1,20," S2-19.jpg",2,2," yellow","congruent",2,1,1.4602,0.9167,1,0.8,0.8,0.5435
41,1,21," S2-19.jpg",2,2," yellow","congruent",2,1,0.7867,1,1,0.8,0.8,-0.2133
41,1,22," S2-19.jpg",2,2," yellow","congruent",2,1,0.7875,0.95,1,0.8,0.8,-0.1625
41,1,23," S1-15.jpg",1,1," red","congruent",1,1,1.0365,0.8,1,0.8,0.8,0.2365
41,1,24," S2-19.jpg",2,2," yellow","congruent",1,0,0.8406,0.85,1,0.8,0.8,-0.00939999999999996
41,1,25," S1-15.jpg",1,2," yellow","incongruent",2,0,1.2483,0.7833,1,0.8,0.2,0.465
41,1,26," S1-15.jpg",1,1," red","congruent",1,1,1.4365,0.8667,1,0.8,0.8,0.5698
41,1,27," S1-15.jpg",1,1," red","congruent",1,1,1.6478,1.05,1,0.8,0.8,0.5978
41,1,28," S1-15.jpg",1,1," red","congruent",1,1,1.4838,0.8,1,0.8,0.8,0.6838
41,1,29," S2-19.jpg",2,3," blue","neutral",2,1,1.3773,0.8,1,0.5,0.5,0.5773
41,1,30," S1-15.jpg",1,1," red","congruent",1,1,1.2598,0.8,1,0.8,0.8,0.4598
41,1,31," S1-15.jpg",1,1," red","congruent",1,1,0.7393,1,1,0.8,0.8,-0.2607
41,1,32," S2-19.jpg",2,2," yellow","congruent",2,1,0.9173,0.8333,1,0.8,0.8,0.084
41,1,33," S1-15.jpg",1,2," yellow","incongruent",2,0,0.6511,0.8833,1,0.8,0.2,-0.2322
41,1,34," S1-15.jpg",1,3," blue","neutral",1,1,1.166,0.8167,1,0.5,0.5,0.3493
41,1,35," S1-15.jpg",1,1," red","congruent",2,0,1.1429,0.7667,1,0.8,0.8,0.3762
41,1,36," S2-19.jpg",2,3," blue","neutral",2,1,1.5062,0.75,1,0.5,0.5,0.7562
41,1,37," S2-19.jpg",2,2," yellow","congruent",2,1,1.5073,0.8333,1,0.8,0.8,0.674
41,1,38," S1-15.jpg",1,3," blue","neutral",2,0,1.6011,1.1167,1,0.5,0.5,0.4844
41,1,39," S1-15.jpg",1,1," red","congruent",1,1,1.4827,0.8,1,0.8,0.8,0.6827
41,1,40," S1-15.jpg",1,1," red","congruent",1,1,1.3311,0.8167,1,0.8,0.8,0.5144
41,1,41," S1-15.jpg",1,1," red","congruent",1,1,1.2256,0.7667,1,0.8,0.8,0.4589
41,1,42," S1-15.jpg",1,1," red","congruent",1,1,0.5247,0.9667,1,0.8,0.8,-0.442
41,1,43," S1-15.jpg",1,3," blue","neutral",2,0,0.871,0.7667,1,0.5,0.5,0.1043
41,1,44," S1-15.jpg",1,3," blue","neutral",1,1,1.3552,0.7667,1,0.5,0.5,0.5885
41,1,45," S2-19.jpg",2,1," red","incongruent",1,0,0.8225,0.8167,1,0.8,0.2,0.00580000000000003
41,1,46," S2-19.jpg",2,2," yellow","congruent",2,1,1.3431,0.8667,1,0.8,0.8,0.4764
41,1,47," S1-15.jpg",1,3," blue","neutral",1,1,1.3779,0.8667,1,0.5,0.5,0.5112
41,1,48," S1-15.jpg",1,1," red","congruent",1,1,1.4721,0.9333,1,0.8,0.8,0.5388
41,1,49," S1-15.jpg",1,3," blue","neutral",1,1,1.5182,0.9,1,0.5,0.5,0.6182
41,1,50," S1-15.jpg",1,3," blue","neutral",1,1,1.3781,0.8833,1,0.5,0.5,0.4948
41,1,51," S1-15.jpg",1,3," blue","neutral",1,1,1.6828,1.2,1,0.5,0.5,0.4828
41,1,52," S1-15.jpg",1,2," yellow","incongruent",2,0,1.1779,0.8333,1,0.8,0.2,0.3446
41,1,53," S2-19.jpg",2,3," blue","neutral",2,1,1.6954,1.0167,1,0.5,0.5,0.6787
41,1,54," S2-19.jpg",2,3," blue","neutral",2,1,1.3308,0.8167,1,0.5,0.5,0.5141
41,1,55," S1-15.jpg",1,3," blue","neutral",1,1,1.6837,0.9833,1,0.5,0.5,0.7004
41,1,56," S2-19.jpg",2,3," blue","neutral",2,1,1.6365,0.9833,1,0.5,0.5,0.6532
41,1,57," S1-15.jpg",1,3," blue","neutral",1,1,1.3538,0.7667,1,0.5,0.5,0.5871
41,1,58," S1-15.jpg",1,1," red","congruent",1,1,1.6713,0.95,1,0.8,0.8,0.7213
41,1,59," S1-15.jpg",1,1," red","congruent",2,0,0.8874,0.9,1,0.8,0.8,-0.0126000000000001
41,1,60," S1-15.jpg",1,2," yellow","incongruent",2,0,0.906,0.85,1,0.8,0.2,0.056
41,1,61," S1-15.jpg",1,1," red","congruent",1,1,1.4603,1.0333,1,0.8,0.8,0.427
41,1,62," S1-15.jpg",1,1," red","congruent",1,1,1.1433,0.8167,1,0.8,0.8,0.3266
41,1,63," S2-19.jpg",2,2," yellow","congruent",2,1,1.5895,0.8333,1,0.8,0.8,0.7562
41,1,64," S2-19.jpg",2,2," yellow","congruent",2,1,1.1187,0.8333,1,0.8,0.8,0.2854
41,1,65," S2-19.jpg",2,3," blue","neutral",2,1,1.6134,1.0667,1,0.5,0.5,0.5467
41,1,66," S2-19.jpg",2,2," yellow","congruent",2,1,1.495,0.8333,1,0.8,0.8,0.6617
41,1,67," S1-15.jpg",1,3," blue","neutral",1,1,1.343,0.8,1,0.5,0.5,0.543
41,1,68," S1-15.jpg",1,1," red","congruent",1,1,1.2725,0.85,1,0.8,0.8,0.4225
41,1,69," S2-19.jpg",2,2," yellow","congruent",2,1,0.8812,0.7667,1,0.8,0.8,0.1145
41,1,70," S2-19.jpg",2,1," red","incongruent",1,0,0.8598,1.1833,1,0.8,0.2,-0.3235
41,1,71," S2-19.jpg",2,3," blue","neutral",1,0,0.9956,1.15,1,0.5,0.5,-0.1544
41,1,72," S1-15.jpg",1,1," red","congruent",1,1,2.2127,1.5,1,0.8,0.8,0.7127
41,1,73," S2-19.jpg",2,1," red","incongruent",2,1,1.5302,0.95,1,0.8,0.2,0.5802
41,1,74," S1-15.jpg",1,3," blue","neutral",1,1,1.6963,0.9167,1,0.5,0.5,0.7796
41,1,75," S1-15.jpg",1,2," yellow","incongruent",1,1,1.5068,0.8667,1,0.8,0.2,0.6401
41,1,76," S2-19.jpg",2,2," yellow","congruent",2,1,1.6003,0.9667,1,0.8,0.8,0.6336
41,1,77," S2-19.jpg",2,2," yellow","congruent",2,1,0.8535,0.85,1,0.8,0.8,0.00350000000000006
41,1,78," S2-19.jpg",2,3," blue","neutral",2,1,1.4831,0.8167,1,0.5,0.5,0.6664
41,1,79," S2-19.jpg",2,2," yellow","congruent",2,1,1.5191,1.0333,1,0.8,0.8,0.4858
41,1,80," S1-15.jpg",1,3," blue","neutral",1,1,1.9195,1.1667,1,0.5,0.5,0.7528
41,1,81," S2-19.jpg",2,2," yellow","congruent",2,1,1.6137,0.9,1,0.8,0.8,0.7137
41,1,82," S1-15.jpg",1,1," red","congruent",1,1,1.4833,0.7833,1,0.8,0.8,0.7
41,1,83," S2-19.jpg",2,2," yellow","congruent",2,1,1.6708,1.1,1,0.8,0.8,0.5708
41,1,84," S2-19.jpg",2,3," blue","neutral",2,1,1.5661,0.8167,1,0.5,0.5,0.7494
41,1,85," S2-19.jpg",2,2," yellow","congruent",2,1,1.7899,1.1333,1,0.8,0.8,0.6566
41,1,86," S2-19.jpg",2,3," blue","neutral",1,0,1.001,0.7833,1,0.5,0.5,0.2177
41,1,87," S2-19.jpg",2,2," yellow","congruent",2,1,1.2923,0.7833,1,0.8,0.8,0.509
41,1,88," S2-19.jpg",2,1," red","incongruent",2,1,1.3893,0.7667,1,0.8,0.2,0.6226
41,1,89," S2-19.jpg",2,2," yellow","congruent",2,1,1.3419,0.7833,1,0.8,0.8,0.5586
41,1,90," S1-15.jpg",1,1," red","congruent",2,0,0.9673,0.7833,1,0.8,0.8,0.184
42,1,1," S2-19.jpg",1,3," purple","neutral",NA,0,NA,1.5,1,0.5,0.5,NA
42,1,2," S2-19.jpg",1,1," orange","congruent",NA,0,NA,0.95,1,0.8,0.8,NA
42,1,3," S2-19.jpg",1,2," green","incongruent",1,1,1.8144,0.9333,1,0.8,0.2,0.8811
42,1,4," S2-19.jpg",1,2," green","incongruent",1,1,1.378,0.8333,1,0.8,0.2,0.5447
42,1,5," S2-19.jpg",1,1," orange","congruent",1,1,1.365,0.8667,1,0.8,0.8,0.4983
42,1,6," S2-19.jpg",1,3," purple","neutral",1,1,1.1919,0.8167,1,0.5,0.5,0.3752
42,1,7," S2-19.jpg",1,1," orange","congruent",1,1,1.9559,1.5,1,0.8,0.8,0.4559
42,1,8," S2-19.jpg",1,3," purple","neutral",1,1,1.3089,0.8833,1,0.5,0.5,0.4256
42,1,9," S2-19.jpg",1,3," purple","neutral",1,1,1.236,0.8667,1,0.5,0.5,0.3693
42,1,10," S1-15.jpg",2,2," green","congruent",2,1,1.3548,0.7833,1,0.8,0.8,0.5715
42,1,11," S2-19.jpg",1,1," orange","congruent",1,1,1.6842,1.1333,1,0.8,0.8,0.5509
42,1,12," S1-15.jpg",2,3," purple","neutral",2,1,1.4605,0.8667,1,0.5,0.5,0.5938
42,1,13," S2-19.jpg",1,3," purple","neutral",1,1,1.3433,0.7833,1,0.5,0.5,0.56
42,1,14," S2-19.jpg",1,2," green","incongruent",1,1,1.5319,0.8167,1,0.8,0.2,0.7152
42,1,15," S1-15.jpg",2,1," orange","incongruent",2,1,1.3785,0.7833,1,0.8,0.2,0.5952
42,1,16," S1-15.jpg",2,2," green","congruent",2,1,1.99,0.8,1,0.8,0.8,1.19
42,1,17," S2-19.jpg",1,1," orange","congruent",1,1,1.2243,0.8667,1,0.8,0.8,0.3576
42,1,18," S2-19.jpg",1,1," orange","congruent",1,1,1.6476,0.9333,1,0.8,0.8,0.7143
42,1,19," S1-15.jpg",2,1," orange","incongruent",2,1,1.6969,1.2,1,0.8,0.2,0.4969
42,1,20," S1-15.jpg",2,2," green","congruent",2,1,1.7658,1.1167,1,0.8,0.8,0.6491
42,1,21," S1-15.jpg",2,2," green","congruent",2,1,1.6598,0.7667,1,0.8,0.8,0.8931
42,1,22," S1-15.jpg",2,3," purple","neutral",2,1,1.4842,0.8,1,0.5,0.5,0.6842
42,1,23," S2-19.jpg",1,1," orange","congruent",1,1,1.3308,0.7667,1,0.8,0.8,0.5641
42,1,24," S2-19.jpg",1,1," orange","congruent",1,1,0.1166,1.1667,1,0.8,0.8,-1.0501
42,1,25," S1-15.jpg",2,2," green","congruent",2,1,1.7522,1.1833,1,0.8,0.8,0.5689
42,1,26," S1-15.jpg",2,2," green","congruent",2,1,1.3659,0.8333,1,0.8,0.8,0.5326
42,1,27," S1-15.jpg",2,2," green","congruent",1,0,0.6515,0.9,1,0.8,0.8,-0.2485
42,1,28," S2-19.jpg",1,1," orange","congruent",1,1,1.3552,0.9,1,0.8,0.8,0.4552
42,1,29," S2-19.jpg",1,1," orange","congruent",2,0,0.5075,0.85,1,0.8,0.8,-0.3425
42,1,30," S1-15.jpg",2,1," orange","incongruent",1,0,0.6886,0.8833,1,0.8,0.2,-0.1947
42,1,31," S2-19.jpg",1,1," orange","congruent",1,1,1.6595,0.9833,1,0.8,0.8,0.6762
42,1,32," S1-15.jpg",2,3," purple","neutral",2,1,1.8259,1.15,1,0.5,0.5,0.6759
42,1,33," S1-15.jpg",2,2," green","congruent",1,0,0.625,0.7667,1,0.8,0.8,-0.1417
42,1,34," S2-19.jpg",1,3," purple","neutral",2,0,0.5729,1,1,0.5,0.5,-0.4271
42,1,35," S2-19.jpg",1,2," green","incongruent",1,1,1.707,1.0667,1,0.8,0.2,0.6403
42,1,36," S2-19.jpg",1,3," purple","neutral",1,1,1.4131,1.0833,1,0.5,0.5,0.3298
42,1,37," S1-15.jpg",2,2," green","congruent",2,1,0.2127,0.75,1,0.8,0.8,-0.5373
42,1,38," S2-19.jpg",1,3," purple","neutral",2,0,0.2363,0.7667,1,0.5,0.5,-0.5304
42,1,39," S1-15.jpg",2,1," orange","incongruent",2,1,1.3789,0.7833,1,0.8,0.2,0.5956
42,1,40," S1-15.jpg",2,2," green","congruent",1,0,0.2565,0.85,1,0.8,0.8,-0.5935
42,1,41," S2-19.jpg",1,3," purple","neutral",1,1,0.2679,1.0167,1,0.5,0.5,-0.7488
42,1,42," S2-19.jpg",1,1," orange","congruent",1,1,1.5773,0.8,1,0.8,0.8,0.7773
42,1,43," S1-15.jpg",2,2," green","congruent",2,1,0.6087,0.95,1,0.8,0.8,-0.3413
42,1,44," S2-19.jpg",1,1," orange","congruent",2,0,0.2659,0.9,1,0.8,0.8,-0.6341
42,1,45," S1-15.jpg",2,3," purple","neutral",2,1,1.4368,0.7833,1,0.5,0.5,0.6535
42,1,46," S2-19.jpg",1,3," purple","neutral",1,1,1.6481,0.8167,1,0.5,0.5,0.8314
42,1,47," S2-19.jpg",1,2," green","incongruent",1,1,1.3305,0.7667,1,0.8,0.2,0.5638
42,1,48," S2-19.jpg",1,1," orange","congruent",1,1,1.5067,0.8667,1,0.8,0.8,0.64
42,1,49," S1-15.jpg",2,2," green","congruent",2,1,1.261,0.9167,1,0.8,0.8,0.3443
42,1,50," S1-15.jpg",2,3," purple","neutral",2,1,0.9528,0.9167,1,0.5,0.5,0.0361
42,1,51," S2-19.jpg",1,1," orange","congruent",2,0,0.7492,1.0167,1,0.8,0.8,-0.2675
42,1,52," S1-15.jpg",2,2," green","congruent",2,1,1.554,0.8,1,0.8,0.8,0.754
42,1,53," S2-19.jpg",1,2," green","incongruent",1,1,1.483,0.7667,1,0.8,0.2,0.7163
42,1,54," S2-19.jpg",1,3," purple","neutral",1,1,1.3304,0.8,1,0.5,0.5,0.5304
42,1,55," S2-19.jpg",1,1," orange","congruent",1,1,1.553,0.7667,1,0.8,0.8,0.7863
42,1,56," S1-15.jpg",2,2," green","congruent",2,1,0.1635,0.8833,1,0.8,0.8,-0.7198
42,1,57," S2-19.jpg",1,1," orange","congruent",1,1,1.2825,0.8333,1,0.8,0.8,0.4492
42,1,58," S2-19.jpg",1,1," orange","congruent",1,1,1.202,0.8167,1,0.8,0.8,0.3853
42,1,59," S2-19.jpg",1,1," orange","congruent",1,1,1.5186,0.8833,1,0.8,0.8,0.6353
42,1,60," S1-15.jpg",2,3," purple","neutral",2,1,1.4483,0.7833,1,0.5,0.5,0.665
42,1,61," S1-15.jpg",2,3," purple","neutral",2,1,1.6127,1.1,1,0.5,0.5,0.5127
42,1,62," S1-15.jpg",2,2," green","congruent",2,1,1.6825,1,1,0.8,0.8,0.6825
42,1,63," S1-15.jpg",2,2," green","congruent",2,1,1.695,1.05,1,0.8,0.8,0.645
42,1,64," S2-19.jpg",1,3," purple","neutral",2,0,1.3422,0.9,1,0.5,0.5,0.4422
42,1,65," S1-15.jpg",2,1," orange","incongruent",2,1,1.7787,0.9667,1,0.8,0.2,0.812
42,1,66," S2-19.jpg",1,3," purple","neutral",1,1,1.847,0.7667,1,0.5,0.5,1.0803
42,1,67," S1-15.jpg",2,3," purple","neutral",2,1,2.0712,0.8,1,0.5,0.5,1.2712
42,1,68," S1-15.jpg",2,3," purple","neutral",2,1,1.3189,0.7667,1,0.5,0.5,0.5522
42,1,69," S1-15.jpg",2,3," purple","neutral",2,1,1.3896,0.85,1,0.5,0.5,0.5396
42,1,70," S1-15.jpg",2,3," purple","neutral",1,0,0.2587,0.85,1,0.5,0.5,-0.5913
42,1,71," S1-15.jpg",2,3," purple","neutral",2,1,1.2607,0.8,1,0.5,0.5,0.4607
42,1,72," S1-15.jpg",2,3," purple","neutral",2,1,1.2732,0.85,1,0.5,0.5,0.4232
42,1,73," S1-15.jpg",2,2," green","congruent",2,1,1.5188,0.9333,1,0.8,0.8,0.5855
42,1,74," S1-15.jpg",2,1," orange","incongruent",2,1,1.1779,0.7833,1,0.8,0.2,0.3946
42,1,75," S1-15.jpg",2,2," green","congruent",2,1,1.5422,1.0333,1,0.8,0.8,0.5089
42,1,76," S2-19.jpg",1,1," orange","congruent",1,1,1.6594,0.95,1,0.8,0.8,0.7094
42,1,77," S1-15.jpg",2,3," purple","neutral",1,0,0.2207,0.9167,1,0.5,0.5,-0.696
42,1,78," S1-15.jpg",2,2," green","congruent",2,1,1.4139,0.8167,1,0.8,0.8,0.5972
42,1,79," S2-19.jpg",1,1," orange","congruent",1,1,0.5824,0.7833,1,0.8,0.8,-0.2009
42,1,80," S1-15.jpg",2,3," purple","neutral",2,1,1.39,0.8333,1,0.5,0.5,0.5567
42,1,81," S2-19.jpg",1,3," purple","neutral",1,1,1.4129,0.8167,1,0.5,0.5,0.5962
42,1,82," S1-15.jpg",2,2," green","congruent",2,1,1.6239,0.9667,1,0.8,0.8,0.6572
42,1,83," S1-15.jpg",2,2," green","congruent",2,1,1.4251,0.8167,1,0.8,0.8,0.6084
42,1,84," S1-15.jpg",2,2," green","congruent",2,1,1.4243,0.8333,1,0.8,0.8,0.591
42,1,85," S1-15.jpg",2,2," green","congruent",2,1,1.2826,0.7833,1,0.8,0.8,0.4993
42,1,86," S2-19.jpg",1,1," orange","congruent",1,1,0.2993,0.8333,1,0.8,0.8,-0.534
42,1,87," S2-19.jpg",1,1," orange","congruent",1,1,1.4717,1.0333,1,0.8,0.8,0.4384
42,1,88," S1-15.jpg",2,2," green","congruent",2,1,1.2605,0.8,1,0.8,0.8,0.4605
42,1,89," S2-19.jpg",1,1," orange","congruent",2,0,0.1377,0.75,1,0.8,0.8,-0.6123
42,1,90," S2-19.jpg",1,3," purple","neutral",1,1,1.7652,0.9833,1,0.5,0.5,0.7819
43,1,1," S1-15.jpg",2,3," blue","neutral",NA,0,NA,0.8667,1,0.5,0.5,NA
43,1,2," S1-15.jpg",2,1," red","incongruent",2,1,1.4352,0.8167,1,0.8,0.2,0.6185
43,1,3," S2-19.jpg",1,3," blue","neutral",2,0,1.2,0.8167,1,0.5,0.5,0.3833
43,1,4," S2-19.jpg",1,1," red","congruent",1,1,1.601,0.7833,1,0.8,0.8,0.8177
43,1,5," S2-19.jpg",1,1," red","congruent",1,1,1.4127,0.9,1,0.8,0.8,0.5127
43,1,6," S2-19.jpg",1,3," blue","neutral",1,1,1.5308,0.9333,1,0.5,0.5,0.5975
43,1,7," S1-15.jpg",2,1," red","incongruent",2,1,1.636,0.9833,1,0.8,0.2,0.6527
43,1,8," S2-19.jpg",1,1," red","congruent",2,0,1.6139,1.0667,1,0.8,0.8,0.5472
43,1,9," S1-15.jpg",2,3," blue","neutral",2,1,1.6131,0.8833,1,0.5,0.5,0.7298
43,1,10," S1-15.jpg",2,2," yellow","congruent",2,1,1.5773,0.9,1,0.8,0.8,0.6773
43,1,11," S2-19.jpg",1,2," yellow","incongruent",1,1,1.6597,0.8667,1,0.8,0.2,0.793
43,1,12," S2-19.jpg",1,2," yellow","incongruent",1,1,1.4831,0.7833,1,0.8,0.2,0.6998
43,1,13," S1-15.jpg",2,3," blue","neutral",2,1,2.1297,1.5,1,0.5,0.5,0.6297
43,1,14," S1-15.jpg",2,3," blue","neutral",2,1,1.4128,0.7667,1,0.5,0.5,0.6461
43,1,15," S1-15.jpg",2,2," yellow","congruent",2,1,1.695,0.85,1,0.8,0.8,0.845
43,1,16," S1-15.jpg",2,2," yellow","congruent",2,1,1.6128,1,1,0.8,0.8,0.6128
43,1,17," S1-15.jpg",2,2," yellow","congruent",2,1,1.402,0.85,1,0.8,0.8,0.552
43,1,18," S2-19.jpg",1,1," red","congruent",1,1,1.5303,0.9333,1,0.8,0.8,0.597
43,1,19," S2-19.jpg",1,3," blue","neutral",1,1,1.3301,0.85,1,0.5,0.5,0.4801
43,1,20," S2-19.jpg",1,3," blue","neutral",1,1,1.2015,0.7667,1,0.5,0.5,0.4348
43,1,21," S2-19.jpg",1,1," red","congruent",1,1,1.2487,0.7667,1,0.8,0.8,0.482
43,1,22," S1-15.jpg",2,3," blue","neutral",2,1,1.5424,0.8667,1,0.5,0.5,0.6757
43,1,23," S2-19.jpg",1,1," red","congruent",1,1,1.8249,1.2,1,0.8,0.8,0.6249
43,1,24," S1-15.jpg",2,2," yellow","congruent",2,1,1.801,0.75,1,0.8,0.8,1.051
43,1,25," S2-19.jpg",1,2," yellow","incongruent",1,1,1.6249,0.95,1,0.8,0.2,0.6749
43,1,26," S1-15.jpg",2,3," blue","neutral",2,1,1.6015,0.8,1,0.5,0.5,0.8015
43,1,27," S1-15.jpg",2,1," red","incongruent",2,1,1.8474,1.1,1,0.8,0.2,0.7474
43,1,28," S1-15.jpg",2,2," yellow","congruent",2,1,1.529,0.8,1,0.8,0.8,0.729
43,1,29," S1-15.jpg",2,3," blue","neutral",2,1,1.4006,0.7833,1,0.5,0.5,0.6173
43,1,30," S2-19.jpg",1,1," red","congruent",1,1,1.4847,0.8167,1,0.8,0.8,0.668
43,1,31," S2-19.jpg",1,1," red","congruent",1,1,2.1423,1.0333,1,0.8,0.8,1.109
43,1,32," S2-19.jpg",1,1," red","congruent",1,1,1.4249,0.8667,1,0.8,0.8,0.5582
43,1,33," S1-15.jpg",2,2," yellow","congruent",2,1,2.4236,1.05,1,0.8,0.8,1.3736
43,1,34," S1-15.jpg",2,2," yellow","congruent",2,1,1.7899,1.1667,1,0.8,0.8,0.6232
43,1,35," S2-19.jpg",1,2," yellow","incongruent",1,1,1.907,1.1333,1,0.8,0.2,0.7737
43,1,36," S2-19.jpg",1,1," red","congruent",1,1,1.554,0.7833,1,0.8,0.8,0.7707
43,1,37," S1-15.jpg",2,2," yellow","congruent",2,1,1.5776,0.8667,1,0.8,0.8,0.7109
43,1,38," S2-19.jpg",1,2," yellow","incongruent",1,1,1.5549,0.8,1,0.8,0.2,0.7549
43,1,39," S2-19.jpg",1,3," blue","neutral",1,1,1.413,0.8333,1,0.5,0.5,0.5797
43,1,40," S1-15.jpg",2,2," yellow","congruent",2,1,1.4601,0.9167,1,0.8,0.8,0.5434
43,1,41," S2-19.jpg",1,1," red","congruent",1,1,1.718,1.0333,1,0.8,0.8,0.6847
43,1,42," S2-19.jpg",1,1," red","congruent",1,1,1.7769,0.8333,1,0.8,0.8,0.9436
43,1,43," S1-15.jpg",2,3," blue","neutral",NA,0,NA,0.8333,1,0.5,0.5,NA
43,1,44," S2-19.jpg",1,3," blue","neutral",1,1,1.4137,0.8,1,0.5,0.5,0.6137
43,1,45," S2-19.jpg",1,1," red","congruent",1,1,1.5193,0.7833,1,0.8,0.8,0.736
43,1,46," S1-15.jpg",2,2," yellow","congruent",2,1,1.3537,0.8167,1,0.8,0.8,0.537
43,1,47," S2-19.jpg",1,1," red","congruent",1,1,1.7185,0.9333,1,0.8,0.8,0.7852
43,1,48," S2-19.jpg",1,2," yellow","incongruent",1,1,1.484,0.7833,1,0.8,0.2,0.7007
43,1,49," S2-19.jpg",1,3," blue","neutral",2,0,2.3188,0.8167,1,0.5,0.5,1.5021
43,1,50," S1-15.jpg",2,3," blue","neutral",2,1,1.7896,1.0167,1,0.5,0.5,0.7729
43,1,51," S2-19.jpg",1,3," blue","neutral",1,1,1.6714,1.0833,1,0.5,0.5,0.5881
43,1,52," S1-15.jpg",2,2," yellow","congruent",NA,0,NA,0.85,1,0.8,0.8,NA
43,1,53," S1-15.jpg",2,3," blue","neutral",2,1,1.6834,1.15,1,0.5,0.5,0.5334
43,1,54," S1-15.jpg",2,2," yellow","congruent",2,1,1.5656,0.9833,1,0.8,0.8,0.5823
43,1,55," S2-19.jpg",1,1," red","congruent",1,1,1.3779,0.8833,1,0.8,0.8,0.4946
43,1,56," S1-15.jpg",2,2," yellow","congruent",2,1,1.4361,0.75,1,0.8,0.8,0.6861
43,1,57," S2-19.jpg",1,1," red","congruent",1,1,1.2843,0.8167,1,0.8,0.8,0.4676
43,1,58," S1-15.jpg",2,2," yellow","congruent",2,1,1.4248,0.7833,1,0.8,0.8,0.6415
43,1,59," S1-15.jpg",2,2," yellow","congruent",2,1,1.5774,0.8833,1,0.8,0.8,0.6941
43,1,60," S1-15.jpg",2,3," blue","neutral",2,1,1.7185,0.8833,1,0.5,0.5,0.8352
43,1,61," S1-15.jpg",2,2," yellow","congruent",2,1,1.5058,0.9,1,0.8,0.8,0.6058
43,1,62," S1-15.jpg",2,3," blue","neutral",2,1,2.2701,1.5,1,0.5,0.5,0.7701
43,1,63," S1-15.jpg",2,2," yellow","congruent",2,1,1.4369,0.8167,1,0.8,0.8,0.6202
43,1,64," S1-15.jpg",2,1," red","incongruent",2,1,1.2836,0.7667,1,0.8,0.2,0.5169
43,1,65," S1-15.jpg",2,2," yellow","congruent",2,1,1.6949,0.95,1,0.8,0.8,0.7449
43,1,66," S2-19.jpg",1,3," blue","neutral",1,1,1.3432,0.8,1,0.5,0.5,0.5432
43,1,67," S1-15.jpg",2,3," blue","neutral",2,1,1.6125,0.8,1,0.5,0.5,0.8125
43,1,68," S1-15.jpg",2,2," yellow","congruent",2,1,1.6477,0.7833,1,0.8,0.8,0.8644
43,1,69," S2-19.jpg",1,1," red","congruent",1,1,1.6964,0.9667,1,0.8,0.8,0.7297
43,1,70," S1-15.jpg",2,1," red","incongruent",2,1,1.6598,0.9,1,0.8,0.2,0.7598
43,1,71," S2-19.jpg",1,1," red","congruent",1,1,1.7542,1.1167,1,0.8,0.8,0.6375
43,1,72," S1-15.jpg",2,2," yellow","congruent",2,1,1.6717,0.9667,1,0.8,0.8,0.705
43,1,73," S2-19.jpg",1,1," red","congruent",1,1,1.2714,0.8,1,0.8,0.8,0.4714
43,1,74," S2-19.jpg",1,3," blue","neutral",1,1,1.2369,0.7667,1,0.5,0.5,0.4702
43,1,75," S2-19.jpg",1,3," blue","neutral",1,1,1.2132,0.8333,1,0.5,0.5,0.3799
43,1,76," S1-15.jpg",2,3," blue","neutral",2,1,1.5773,0.95,1,0.5,0.5,0.6273
43,1,77," S1-15.jpg",2,2," yellow","congruent",2,1,1.7537,1.0167,1,0.8,0.8,0.737
43,1,78," S2-19.jpg",1,1," red","congruent",1,1,1.1542,0.7667,1,0.8,0.8,0.3875
43,1,79," S2-19.jpg",1,3," blue","neutral",1,1,1.1773,0.7667,1,0.5,0.5,0.4106
43,1,80," S2-19.jpg",1,1," red","congruent",1,1,1.4723,0.7833,1,0.8,0.8,0.689
43,1,81," S2-19.jpg",1,1," red","congruent",1,1,1.6358,1.1833,1,0.8,0.8,0.4525
43,1,82," S2-19.jpg",1,3," blue","neutral",1,1,1.3545,0.8333,1,0.5,0.5,0.5212
43,1,83," S1-15.jpg",2,2," yellow","congruent",1,0,1.3306,0.7667,1,0.8,0.8,0.5639
43,1,84," S2-19.jpg",1,3," blue","neutral",1,1,1.5655,0.9167,1,0.5,0.5,0.6488
43,1,85," S2-19.jpg",1,1," red","congruent",1,1,1.3529,0.8333,1,0.8,0.8,0.5196
43,1,86," S2-19.jpg",1,3," blue","neutral",1,1,1.5538,1,1,0.5,0.5,0.5538
43,1,87," S2-19.jpg",1,1," red","congruent",1,1,1.2714,0.8,1,0.8,0.8,0.4714
43,1,88," S1-15.jpg",2,1," red","incongruent",2,1,1.6604,0.85,1,0.8,0.2,0.8104
43,1,89," S1-15.jpg",2,2," yellow","congruent",2,1,1.4254,0.9167,1,0.8,0.8,0.5087
43,1,90," S1-15.jpg",2,3," blue","neutral",2,1,1.1659,0.7667,1,0.5,0.5,0.3992
44,1,1," S4-20.jpg",2,3," blue","neutral",1,0,1.6472,0.8333,1,0.5,0.5,0.8139
44,1,2," S3-12.jpg",1,3," blue","neutral",1,1,1.8311,0.9,1,0.5,0.5,0.9311
44,1,3," S4-20.jpg",2,3," blue","neutral",2,1,1.3921,0.75,1,0.5,0.5,0.6421
44,1,4," S3-12.jpg",1,3," blue","neutral",1,1,2.0736,0.8167,1,0.5,0.5,1.2569
44,1,5," S4-20.jpg",2,3," blue","neutral",2,1,1.3521,1.0833,1,0.5,0.5,0.2688
44,1,6," S4-20.jpg",2,2," yellow","congruent",2,1,1.492,0.85,1,0.8,0.8,0.642
44,1,7," S4-20.jpg",2,2," yellow","congruent",2,1,1.5077,0.8167,1,0.8,0.8,0.691
44,1,8," S4-20.jpg",2,2," yellow","congruent",2,1,1.3665,0.8833,1,0.8,0.8,0.4832
44,1,9," S3-12.jpg",1,2," yellow","incongruent",1,1,1.7654,1.1833,1,0.8,0.2,0.5821
44,1,10," S3-12.jpg",1,1," red","congruent",1,1,1.8236,1.2,1,0.8,0.8,0.6236
44,1,11," S3-12.jpg",1,3," blue","neutral",1,1,1.5186,0.85,1,0.5,0.5,0.6686
44,1,12," S4-20.jpg",2,2," yellow","congruent",2,1,1.2283,0.8,1,0.8,0.8,0.4283
44,1,13," S3-12.jpg",1,3," blue","neutral",1,1,1.4715,0.8667,1,0.5,0.5,0.6048
44,1,14," S3-12.jpg",1,1," red","congruent",1,1,2.0378,1.1667,1,0.8,0.8,0.8711
44,1,15," S4-20.jpg",2,2," yellow","congruent",2,1,1.4607,0.7833,1,0.8,0.8,0.6774
44,1,16," S3-12.jpg",1,1," red","congruent",1,1,1.0949,0.75,1,0.8,0.8,0.3449
44,1,17," S3-12.jpg",1,1," red","congruent",1,1,1.1321,0.7667,1,0.8,0.8,0.3654
44,1,18," S3-12.jpg",1,2," yellow","incongruent",2,0,1.4473,0.7667,1,0.8,0.2,0.6806
44,1,19," S4-20.jpg",2,1," red","incongruent",2,1,1.7426,0.95,1,0.8,0.2,0.7926
44,1,20," S4-20.jpg",2,2," yellow","congruent",2,1,1.5787,0.8833,1,0.8,0.8,0.6954
44,1,21," S3-12.jpg",1,1," red","congruent",1,1,2.2242,1.5,1,0.8,0.8,0.7242
44,1,22," S3-12.jpg",1,3," blue","neutral",1,1,1.3418,0.85,1,0.5,0.5,0.4918
44,1,23," S3-12.jpg",1,1," red","congruent",1,1,1.4596,0.7667,1,0.8,0.8,0.6929
44,1,24," S3-12.jpg",1,1," red","congruent",1,1,1.8006,1,1,0.8,0.8,0.8006
44,1,25," S4-20.jpg",2,1," red","incongruent",2,1,1.6251,0.9333,1,0.8,0.2,0.6918
44,1,26," S3-12.jpg",1,1," red","congruent",1,1,1.8832,1.1167,1,0.8,0.8,0.7665
44,1,27," S4-20.jpg",2,2," yellow","congruent",2,1,1.6473,0.9833,1,0.8,0.8,0.664
44,1,28," S4-20.jpg",2,2," yellow","congruent",2,1,1.3429,0.8,1,0.8,0.8,0.5429
44,1,29," S4-20.jpg",2,3," blue","neutral",2,1,1.7187,1.15,1,0.5,0.5,0.5687
44,1,30," S4-20.jpg",2,2," yellow","congruent",2,1,1.661,1.0167,1,0.8,0.8,0.6443
44,1,31," S3-12.jpg",1,3," blue","neutral",1,1,1.4013,0.8167,1,0.5,0.5,0.5846
44,1,32," S4-20.jpg",2,2," yellow","congruent",2,1,1.7778,1.0667,1,0.8,0.8,0.7111
44,1,33," S3-12.jpg",1,2," yellow","incongruent",1,1,1.5307,0.8,1,0.8,0.2,0.7307
44,1,34," S3-12.jpg",1,3," blue","neutral",1,1,1.4713,0.8,1,0.5,0.5,0.6713
44,1,35," S3-12.jpg",1,1," red","congruent",1,1,2.0832,0.9167,1,0.8,0.8,1.1665
44,1,36," S4-20.jpg",2,2," yellow","congruent",2,1,1.4607,0.8333,1,0.8,0.8,0.6274
44,1,37," S3-12.jpg",1,1," red","congruent",1,1,1.8487,0.7833,1,0.8,0.8,1.0654
44,1,38," S3-12.jpg",1,1," red","congruent",1,1,1.5067,0.8,1,0.8,0.8,0.7067
44,1,39," S4-20.jpg",2,2," yellow","congruent",2,1,1.3199,0.8167,1,0.8,0.8,0.5032
44,1,40," S3-12.jpg",1,1," red","congruent",1,1,1.1424,0.8333,1,0.8,0.8,0.3091
44,1,41," S4-20.jpg",2,1," red","incongruent",2,1,1.3077,0.7667,1,0.8,0.2,0.541
44,1,42," S4-20.jpg",2,2," yellow","congruent",2,1,1.4951,0.8667,1,0.8,0.8,0.6284
44,1,43," S3-12.jpg",1,3," blue","neutral",1,1,1.6954,1.0167,1,0.5,0.5,0.6787
44,1,44," S3-12.jpg",1,3," blue","neutral",2,0,0.9901,0.7667,1,0.5,0.5,0.2234
44,1,45," S4-20.jpg",2,3," blue","neutral",2,1,1.2246,0.9167,1,0.5,0.5,0.3079
44,1,46," S3-12.jpg",1,1," red","congruent",1,1,1.4954,0.85,1,0.8,0.8,0.6454
44,1,47," S4-20.jpg",2,2," yellow","congruent",2,1,0.7908,0.8,1,0.8,0.8,-0.0092000000000001
44,1,48," S4-20.jpg",2,3," blue","neutral",2,1,1.3788,0.7833,1,0.5,0.5,0.5955
44,1,49," S3-12.jpg",1,1," red","congruent",1,1,0.871,0.7833,1,0.8,0.8,0.0877
44,1,50," S3-12.jpg",1,3," blue","neutral",1,1,1.5656,0.9167,1,0.5,0.5,0.6489
44,1,51," S4-20.jpg",2,2," yellow","congruent",2,1,0.6428,0.8167,1,0.8,0.8,-0.1739
44,1,52," S3-12.jpg",1,3," blue","neutral",2,0,1.2591,0.95,1,0.5,0.5,0.3091
44,1,53," S4-20.jpg",2,3," blue","neutral",2,1,1.426,0.7667,1,0.5,0.5,0.6593
44,1,54," S4-20.jpg",2,3," blue","neutral",1,0,1.2809,0.7833,1,0.5,0.5,0.4976
44,1,55," S3-12.jpg",1,1," red","congruent",1,1,1.4018,0.7833,1,0.8,0.8,0.6185
44,1,56," S4-20.jpg",2,1," red","incongruent",2,1,1.3892,0.7833,1,0.8,0.2,0.6059
44,1,57," S3-12.jpg",1,1," red","congruent",1,1,1.2717,0.7667,1,0.8,0.8,0.505
44,1,58," S4-20.jpg",2,3," blue","neutral",2,1,1.4131,0.9667,1,0.5,0.5,0.4464
44,1,59," S4-20.jpg",2,3," blue","neutral",2,1,1.5064,0.8833,1,0.5,0.5,0.6231
44,1,60," S4-20.jpg",2,2," yellow","congruent",2,1,0.7143,0.85,1,0.8,0.8,-0.1357
44,1,61," S4-20.jpg",2,1," red","incongruent",2,1,1.4364,0.8333,1,0.8,0.2,0.6031
44,1,62," S4-20.jpg",2,2," yellow","congruent",2,1,1.3307,0.8667,1,0.8,0.8,0.464
44,1,63," S4-20.jpg",2,2," yellow","congruent",2,1,1.4954,1.0333,1,0.8,0.8,0.4621
44,1,64," S3-12.jpg",1,2," yellow","incongruent",1,1,1.2006,0.7833,1,0.8,0.2,0.4173
44,1,65," S3-12.jpg",1,3," blue","neutral",1,1,1.4133,0.9333,1,0.5,0.5,0.48
44,1,66," S4-20.jpg",2,3," blue","neutral",2,1,1.6605,0.95,1,0.5,0.5,0.7105
44,1,67," S3-12.jpg",1,3," blue","neutral",1,1,1.5777,0.7667,1,0.5,0.5,0.811
44,1,68," S3-12.jpg",1,1," red","congruent",1,1,1.5301,1,1,0.8,0.8,0.5301
44,1,69," S4-20.jpg",2,2," yellow","congruent",2,1,1.4134,0.7833,1,0.8,0.8,0.6301
44,1,70," S3-12.jpg",1,1," red","congruent",1,1,1.7425,0.8167,1,0.8,0.8,0.9258
44,1,71," S3-12.jpg",1,2," yellow","incongruent",2,0,1.2834,0.9,1,0.8,0.2,0.3834
44,1,72," S3-12.jpg",1,3," blue","neutral",1,1,1.5775,0.9833,1,0.5,0.5,0.5942
44,1,73," S3-12.jpg",1,3," blue","neutral",1,1,1.6723,1.1,1,0.5,0.5,0.5723
44,1,74," S3-12.jpg",1,1," red","congruent",1,1,1.3076,0.8,1,0.8,0.8,0.5076
44,1,75," S4-20.jpg",2,3," blue","neutral",2,1,1.4602,0.8667,1,0.5,0.5,0.5935
44,1,76," S3-12.jpg",1,1," red","congruent",1,1,1.4717,0.9667,1,0.8,0.8,0.505
44,1,77," S4-20.jpg",2,2," yellow","congruent",2,1,0.2867,1.0333,1,0.8,0.8,-0.7466
44,1,78," S3-12.jpg",1,1," red","congruent",1,1,1.884,1.5,1,0.8,0.8,0.384
44,1,79," S3-12.jpg",1,2," yellow","incongruent",2,0,0.9421,0.7667,1,0.8,0.2,0.1754
44,1,80," S4-20.jpg",2,2," yellow","congruent",2,1,0.7872,0.8167,1,0.8,0.8,-0.0295
44,1,81," S4-20.jpg",2,3," blue","neutral",2,1,1.2827,0.9,1,0.5,0.5,0.3827
44,1,82," S4-20.jpg",2,2," yellow","congruent",2,1,0.7032,1.05,1,0.8,0.8,-0.3468
44,1,83," S4-20.jpg",2,2," yellow","congruent",2,1,1.3187,0.8833,1,0.8,0.8,0.4354
44,1,84," S4-20.jpg",2,3," blue","neutral",1,0,0.9998,0.9,1,0.5,0.5,0.0998
44,1,85," S4-20.jpg",2,3," blue","neutral",2,1,0.814,0.8333,1,0.5,0.5,-0.0193000000000001
44,1,86," S3-12.jpg",1,1," red","congruent",1,1,1.362,0.8667,1,0.8,0.8,0.4953
44,1,87," S3-12.jpg",1,1," red","congruent",1,1,1.3779,0.8,1,0.8,0.8,0.5779
44,1,88," S4-20.jpg",2,1," red","incongruent",2,1,1.5889,1.1333,1,0.8,0.2,0.4556
44,1,89," S4-20.jpg",2,2," yellow","congruent",2,1,1.3774,0.9333,1,0.8,0.8,0.4441
44,1,90," S3-12.jpg",1,1," red","congruent",1,1,1.2487,0.8333,1,0.8,0.8,0.4154
45,1,1," S4-20.jpg",1,3," blue","neutral",NA,0,NA,1.1167,1,0.5,0.5,NA
45,1,2," S3-12.jpg",2,2," red","congruent",NA,0,NA,1.15,1,0.8,0.8,NA
45,1,3," S4-20.jpg",1,3," blue","neutral",2,0,2.1208,0.8,1,0.5,0.5,1.3208
45,1,4," S3-12.jpg",2,2," red","congruent",2,1,2.227,0.8833,1,0.8,0.8,1.3437
45,1,5," S4-20.jpg",1,1," yellow","congruent",NA,0,NA,0.9333,1,0.8,0.8,NA
45,1,6," S3-12.jpg",2,2," red","congruent",2,1,2.0979,0.9833,1,0.8,0.8,1.1146
45,1,7," S3-12.jpg",2,3," blue","neutral",NA,0,NA,0.8333,1,0.5,0.5,NA
45,1,8," S3-12.jpg",2,3," blue","neutral",1,0,1.8605,0.85,1,0.5,0.5,1.0105
45,1,9," S3-12.jpg",2,2," red","congruent",2,1,1.4603,0.8167,1,0.8,0.8,0.6436
45,1,10," S4-20.jpg",1,1," yellow","congruent",1,1,1.8367,0.9333,1,0.8,0.8,0.9034
45,1,11," S4-20.jpg",1,1," yellow","congruent",1,1,1.7299,1,1,0.8,0.8,0.7299
45,1,12," S4-20.jpg",1,1," yellow","congruent",1,1,1.542,0.8,1,0.8,0.8,0.742
45,1,13," S3-12.jpg",2,2," red","congruent",2,1,1.5778,0.75,1,0.8,0.8,0.8278
45,1,14," S3-12.jpg",2,3," blue","neutral",1,0,1.4596,1.1,1,0.5,0.5,0.3596
45,1,15," S4-20.jpg",1,3," blue","neutral",1,1,2.0012,1.0333,1,0.5,0.5,0.9679
45,1,16," S3-12.jpg",2,3," blue","neutral",2,1,1.5314,0.7667,1,0.5,0.5,0.7647
45,1,17," S3-12.jpg",2,2," red","congruent",2,1,1.7191,1.0167,1,0.8,0.8,0.7024
45,1,18," S3-12.jpg",2,2," red","congruent",2,1,1.4016,0.8,1,0.8,0.8,0.6016
45,1,19," S3-12.jpg",2,2," red","congruent",2,1,1.7543,0.8167,1,0.8,0.8,0.9376
45,1,20," S3-12.jpg",2,2," red","congruent",2,1,1.3072,0.8167,1,0.8,0.8,0.4905
45,1,21," S4-20.jpg",1,1," yellow","congruent",1,1,1.5217,0.9167,1,0.8,0.8,0.605
45,1,22," S4-20.jpg",1,1," yellow","congruent",1,1,1.6484,0.9167,1,0.8,0.8,0.7317
45,1,23," S3-12.jpg",2,3," blue","neutral",2,1,2.0831,1.5,1,0.5,0.5,0.5831
45,1,24," S3-12.jpg",2,1," yellow","incongruent",2,1,1.3197,0.7833,1,0.8,0.2,0.5364
45,1,25," S4-20.jpg",1,1," yellow","congruent",1,1,1.3551,0.7833,1,0.8,0.8,0.5718
45,1,26," S3-12.jpg",2,2," red","congruent",2,1,1.3774,0.7833,1,0.8,0.8,0.5941
45,1,27," S3-12.jpg",2,2," red","congruent",2,1,1.8006,0.85,1,0.8,0.8,0.9506
45,1,28," S3-12.jpg",2,3," blue","neutral",2,1,1.602,0.9333,1,0.5,0.5,0.6687
45,1,29," S3-12.jpg",2,2," red","congruent",2,1,1.5192,0.8333,1,0.8,0.8,0.6859
45,1,30," S3-12.jpg",2,1," yellow","incongruent",2,1,1.6475,0.7833,1,0.8,0.2,0.8642
45,1,31," S4-20.jpg",1,1," yellow","congruent",1,1,1.4603,0.8,1,0.8,0.8,0.6603
45,1,32," S4-20.jpg",1,2," red","incongruent",1,1,1.3308,0.8,1,0.8,0.2,0.5308
45,1,33," S3-12.jpg",2,3," blue","neutral",2,1,1.3196,0.75,1,0.5,0.5,0.5696
45,1,34," S3-12.jpg",2,2," red","congruent",2,1,1.5887,1.0833,1,0.8,0.8,0.5054
45,1,35," S3-12.jpg",2,2," red","congruent",2,1,1.4954,0.9,1,0.8,0.8,0.5954
45,1,36," S4-20.jpg",1,1," yellow","congruent",1,1,1.3299,0.7833,1,0.8,0.8,0.5466
45,1,37," S3-12.jpg",2,2," red","congruent",2,1,1.4137,0.7833,1,0.8,0.8,0.6304
45,1,38," S4-20.jpg",1,1," yellow","congruent",1,1,1.6834,0.9167,1,0.8,0.8,0.7667
45,1,39," S4-20.jpg",1,3," blue","neutral",1,1,1.4132,0.85,1,0.5,0.5,0.5632
45,1,40," S4-20.jpg",1,1," yellow","congruent",1,1,1.4953,0.85,1,0.8,0.8,0.6453
45,1,41," S3-12.jpg",2,2," red","congruent",2,1,1.2602,0.7667,1,0.8,0.8,0.4935
45,1,42," S3-12.jpg",2,3," blue","neutral",2,1,2.201,1.1667,1,0.5,0.5,1.0343
45,1,43," S3-12.jpg",2,2," red","congruent",2,1,2.1182,1.5,1,0.8,0.8,0.6182
45,1,44," S4-20.jpg",1,1," yellow","congruent",1,1,1.4833,0.8833,1,0.8,0.8,0.6
45,1,45," S3-12.jpg",2,2," red","congruent",2,1,1.5673,0.95,1,0.8,0.8,0.6173
45,1,46," S4-20.jpg",1,1," yellow","congruent",1,1,1.2836,0.7833,1,0.8,0.8,0.5003
45,1,47," S3-12.jpg",2,1," yellow","incongruent",2,1,1.3305,0.7833,1,0.8,0.2,0.5472
45,1,48," S4-20.jpg",1,3," blue","neutral",1,1,1.342,0.7667,1,0.5,0.5,0.5753
45,1,49," S4-20.jpg",1,1," yellow","congruent",1,1,1.6831,1.0667,1,0.8,0.8,0.6164
45,1,50," S4-20.jpg",1,1," yellow","congruent",1,1,1.4482,0.7833,1,0.8,0.8,0.6649
45,1,51," S3-12.jpg",2,3," blue","neutral",2,1,1.5309,0.7667,1,0.5,0.5,0.7642
45,1,52," S4-20.jpg",1,1," yellow","congruent",1,1,1.7073,1.0333,1,0.8,0.8,0.674
45,1,53," S3-12.jpg",2,3," blue","neutral",2,1,1.4133,0.8167,1,0.5,0.5,0.5966
45,1,54," S3-12.jpg",2,3," blue","neutral",2,1,1.8482,1.1833,1,0.5,0.5,0.6649
45,1,55," S4-20.jpg",1,1," yellow","congruent",1,1,1.5074,0.9,1,0.8,0.8,0.6074
45,1,56," S4-20.jpg",1,1," yellow","congruent",1,1,1.4597,0.7667,1,0.8,0.8,0.693
45,1,57," S3-12.jpg",2,2," red","congruent",NA,0,NA,0.7667,1,0.8,0.8,NA
45,1,58," S4-20.jpg",1,1," yellow","congruent",1,1,1.3788,0.7667,1,0.8,0.8,0.6121
45,1,59," S4-20.jpg",1,2," red","incongruent",1,1,1.4129,0.8333,1,0.8,0.2,0.5796
45,1,60," S4-20.jpg",1,1," yellow","congruent",1,1,1.3425,0.8833,1,0.8,0.8,0.4592
45,1,61," S4-20.jpg",1,2," red","incongruent",1,1,1.3077,0.8,1,0.8,0.2,0.5077
45,1,62," S3-12.jpg",2,3," blue","neutral",2,1,1.248,0.7667,1,0.5,0.5,0.4813
45,1,63," S4-20.jpg",1,1," yellow","congruent",1,1,1.3418,0.8167,1,0.8,0.8,0.5251
45,1,64," S4-20.jpg",1,2," red","incongruent",1,1,1.5073,0.9833,1,0.8,0.2,0.524
45,1,65," S4-20.jpg",1,2," red","incongruent",1,1,1.7065,1.05,1,0.8,0.2,0.6565
45,1,66," S4-20.jpg",1,3," blue","neutral",1,1,1.473,0.8667,1,0.5,0.5,0.6063
45,1,67," S4-20.jpg",1,3," blue","neutral",1,1,1.3425,0.8667,1,0.5,0.5,0.4758
45,1,68," S4-20.jpg",1,3," blue","neutral",1,1,1.2957,0.9,1,0.5,0.5,0.3957
45,1,69," S4-20.jpg",1,2," red","incongruent",1,1,1.448,0.9667,1,0.8,0.2,0.4813
45,1,70," S4-20.jpg",1,3," blue","neutral",1,1,1.2366,0.8167,1,0.5,0.5,0.4199
45,1,71," S4-20.jpg",1,1," yellow","congruent",1,1,1.3775,0.8333,1,0.8,0.8,0.5442
45,1,72," S3-12.jpg",2,2," red","congruent",2,1,1.8954,0.8,1,0.8,0.8,1.0954
45,1,73," S3-12.jpg",2,1," yellow","incongruent",2,1,1.1887,0.8,1,0.8,0.2,0.3887
45,1,74," S4-20.jpg",1,3," blue","neutral",1,1,1.5876,0.8833,1,0.5,0.5,0.7043
45,1,75," S4-20.jpg",1,3," blue","neutral",1,1,1.3909,0.8333,1,0.5,0.5,0.5576
45,1,76," S3-12.jpg",2,2," red","congruent",2,1,1.8011,1.2,1,0.8,0.8,0.6011
45,1,77," S3-12.jpg",2,1," yellow","incongruent",2,1,1.5423,0.95,1,0.8,0.2,0.5923
45,1,78," S4-20.jpg",1,3," blue","neutral",1,1,1.5057,0.8167,1,0.5,0.5,0.689
45,1,79," S3-12.jpg",2,2," red","congruent",2,1,1.4718,0.7667,1,0.8,0.8,0.7051
45,1,80," S4-20.jpg",1,3," blue","neutral",1,1,1.7551,0.8667,1,0.5,0.5,0.8884
45,1,81," S3-12.jpg",2,2," red","congruent",2,1,1.6833,0.9667,1,0.8,0.8,0.7166
45,1,82," S3-12.jpg",2,1," yellow","incongruent",2,1,1.9542,0.9,1,0.8,0.2,1.0542
45,1,83," S3-12.jpg",2,3," blue","neutral",2,1,0.7386,1,1,0.5,0.5,-0.2614
45,1,84," S3-12.jpg",2,3," blue","neutral",2,1,1.5665,0.8667,1,0.5,0.5,0.6998
45,1,85," S4-20.jpg",1,1," yellow","congruent",1,1,2.1315,0.95,1,0.8,0.8,1.1815
45,1,86," S3-12.jpg",2,2," red","congruent",2,1,2.0019,1.0167,1,0.8,0.8,0.9852
45,1,87," S3-12.jpg",2,3," blue","neutral",NA,0,NA,1.1333,1,0.5,0.5,NA
45,1,88," S4-20.jpg",1,3," blue","neutral",NA,0,NA,0.85,1,0.5,0.5,NA
45,1,89," S4-20.jpg",1,1," yellow","congruent",1,1,1.2382,0.8667,1,0.8,0.8,0.3715
45,1,90," S4-20.jpg",1,3," blue","neutral",1,1,1.4483,0.8333,1,0.5,0.5,0.615
46,1,1," S3-12.jpg",2,2," purple","congruent",NA,0,NA,0.85,1,0.8,0.8,NA
46,1,2," S3-12.jpg",2,2," purple","congruent",1,0,0.5571,0.9167,1,0.8,0.8,-0.3596
46,1,3," S4-20.jpg",1,2," purple","incongruent",2,0,0.5866,0.8333,1,0.8,0.2,-0.2467
46,1,4," S4-20.jpg",1,2," purple","incongruent",2,0,0.6133,0.7667,1,0.8,0.2,-0.1534
46,1,5," S4-20.jpg",1,1," orange","congruent",NA,0,NA,1.0167,1,0.8,0.8,NA
46,1,6," S4-20.jpg",1,1," orange","congruent",1,1,0.6572,1.1,1,0.8,0.8,-0.4428
46,1,7," S4-20.jpg",1,3," green","neutral",2,0,0.7209,0.8167,1,0.5,0.5,-0.0958
46,1,8," S4-20.jpg",1,1," orange","congruent",1,1,0.6878,0.9167,1,0.8,0.8,-0.2289
46,1,9," S3-12.jpg",2,2," purple","congruent",1,0,0.5921,0.9667,1,0.8,0.8,-0.3746
46,1,10," S3-12.jpg",2,2," purple","congruent",2,1,0.5898,0.8333,1,0.8,0.8,-0.2435
46,1,11," S4-20.jpg",1,1," orange","congruent",1,1,0.7162,0.9167,1,0.8,0.8,-0.2005
46,1,12," S4-20.jpg",1,1," orange","congruent",2,0,0.6911,0.75,1,0.8,0.8,-0.0589
46,1,13," S3-12.jpg",2,3," green","neutral",2,1,1.0005,0.8667,1,0.5,0.5,0.1338
46,1,14," S4-20.jpg",1,3," green","neutral",2,0,1.1425,0.8,1,0.5,0.5,0.3425
46,1,15," S4-20.jpg",1,1," orange","congruent",2,0,0.776,0.75,1,0.8,0.8,0.026
46,1,16," S3-12.jpg",2,2," purple","congruent",1,0,1.0721,0.8,1,0.8,0.8,0.2721
46,1,17," S3-12.jpg",2,2," purple","congruent",2,1,0.9418,0.8,1,0.8,0.8,0.1418
46,1,18," S4-20.jpg",1,3," green","neutral",2,0,0.8382,0.85,1,0.5,0.5,-0.0118
46,1,19," S3-12.jpg",2,2," purple","congruent",2,1,0.7625,0.7667,1,0.8,0.8,-0.00420000000000009
46,1,20," S3-12.jpg",2,2," purple","congruent",2,1,0.7361,0.7667,1,0.8,0.8,-0.0306000000000001
46,1,21," S3-12.jpg",2,2," purple","congruent",2,1,0.4295,0.85,1,0.8,0.8,-0.4205
46,1,22," S3-12.jpg",2,1," orange","incongruent",1,0,0.5443,1.1167,1,0.8,0.2,-0.5724
46,1,23," S4-20.jpg",1,2," purple","incongruent",2,0,0.6209,0.7667,1,0.8,0.2,-0.1458
46,1,24," S3-12.jpg",2,3," green","neutral",2,1,1.2366,0.7833,1,0.5,0.5,0.4533
46,1,25," S3-12.jpg",2,2," purple","congruent",2,1,1.2956,0.8333,1,0.8,0.8,0.4623
46,1,26," S4-20.jpg",1,3," green","neutral",1,1,1.3539,0.7833,1,0.5,0.5,0.5706
46,1,27," S3-12.jpg",2,2," purple","congruent",2,1,1.5549,1.05,1,0.8,0.8,0.5049
46,1,28," S3-12.jpg",2,1," orange","incongruent",2,1,1.4253,0.95,1,0.8,0.2,0.4753
46,1,29," S3-12.jpg",2,3," green","neutral",2,1,1.6489,1.2,1,0.5,0.5,0.4489
46,1,30," S3-12.jpg",2,3," green","neutral",2,1,1.2,0.8167,1,0.5,0.5,0.3833
46,1,31," S3-12.jpg",2,1," orange","incongruent",1,0,1.0837,0.8167,1,0.8,0.2,0.267
46,1,32," S3-12.jpg",2,2," purple","congruent",2,1,1.3633,0.7667,1,0.8,0.8,0.5966
46,1,33," S4-20.jpg",1,1," orange","congruent",1,1,1.802,1.1833,1,0.8,0.8,0.6187
46,1,34," S4-20.jpg",1,1," orange","congruent",1,1,1.4606,0.9333,1,0.8,0.8,0.5273
46,1,35," S4-20.jpg",1,1," orange","congruent",1,1,1.3069,0.7833,1,0.8,0.8,0.5236
46,1,36," S4-20.jpg",1,1," orange","congruent",1,1,1.4008,0.9,1,0.8,0.8,0.5008
46,1,37," S3-12.jpg",2,3," green","neutral",2,1,1.3301,1.0333,1,0.5,0.5,0.2968
46,1,38," S4-20.jpg",1,1," orange","congruent",1,1,2.0477,1.5,1,0.8,0.8,0.5477
46,1,39," S3-12.jpg",2,3," green","neutral",2,1,1.5082,0.9333,1,0.5,0.5,0.5749
46,1,40," S3-12.jpg",2,2," purple","congruent",2,1,1.5775,1.15,1,0.8,0.8,0.4275
46,1,41," S4-20.jpg",1,3," green","neutral",2,0,0.9767,0.8167,1,0.5,0.5,0.16
46,1,42," S4-20.jpg",1,1," orange","congruent",1,1,1.3308,0.7833,1,0.8,0.8,0.5475
46,1,43," S4-20.jpg",1,1," orange","congruent",1,1,0.5678,0.9833,1,0.8,0.8,-0.4155
46,1,44," S4-20.jpg",1,1," orange","congruent",1,1,0.5205,0.8,1,0.8,0.8,-0.2795
46,1,45," S4-20.jpg",1,3," green","neutral",1,1,1.4246,0.8333,1,0.5,0.5,0.5913
46,1,46," S3-12.jpg",2,2," purple","congruent",2,1,1.4485,0.8167,1,0.8,0.8,0.6318
46,1,47," S4-20.jpg",1,1," orange","congruent",1,1,1.4953,0.9667,1,0.8,0.8,0.5286
46,1,48," S3-12.jpg",2,2," purple","congruent",2,1,1.5054,0.9,1,0.8,0.8,0.6054
46,1,49," S4-20.jpg",1,3," green","neutral",1,1,1.3778,0.7667,1,0.5,0.5,0.6111
46,1,50," S4-20.jpg",1,1," orange","congruent",1,1,2.1184,1.5,1,0.8,0.8,0.6184
46,1,51," S3-12.jpg",2,3," green","neutral",2,1,1.5769,0.7833,1,0.5,0.5,0.7936
46,1,52," S3-12.jpg",2,3," green","neutral",2,1,1.7773,1.0167,1,0.5,0.5,0.7606
46,1,53," S4-20.jpg",1,1," orange","congruent",1,1,1.6129,1.0667,1,0.8,0.8,0.5462
46,1,54," S3-12.jpg",2,2," purple","congruent",2,1,1.4131,0.8,1,0.8,0.8,0.6131
46,1,55," S4-20.jpg",1,1," orange","congruent",1,1,1.4956,1,1,0.8,0.8,0.4956
46,1,56," S3-12.jpg",2,2," purple","congruent",2,1,1.2599,0.8667,1,0.8,0.8,0.3932
46,1,57," S4-20.jpg",1,3," green","neutral",1,1,1.2244,0.8333,1,0.5,0.5,0.3911
46,1,58," S4-20.jpg",1,2," purple","incongruent",2,0,0.3718,0.9,1,0.8,0.2,-0.5282
46,1,59," S4-20.jpg",1,3," green","neutral",1,1,1.414,0.8167,1,0.5,0.5,0.5973
46,1,60," S4-20.jpg",1,3," green","neutral",1,1,0.8281,0.8333,1,0.5,0.5,-0.00520000000000009
46,1,61," S4-20.jpg",1,3," green","neutral",1,1,0.4485,0.7833,1,0.5,0.5,-0.3348
46,1,62," S3-12.jpg",2,3," green","neutral",1,0,0.3424,0.8667,1,0.5,0.5,-0.5243
46,1,63," S4-20.jpg",1,1," orange","congruent",1,1,1.1657,0.7833,1,0.8,0.8,0.3824
46,1,64," S4-20.jpg",1,3," green","neutral",1,1,2.0602,0.7667,1,0.5,0.5,1.2935
46,1,65," S4-20.jpg",1,1," orange","congruent",1,1,1.5174,0.9333,1,0.8,0.8,0.5841
46,1,66," S3-12.jpg",2,3," green","neutral",2,1,1.8482,1.1333,1,0.5,0.5,0.7149
46,1,67," S4-20.jpg",1,3," green","neutral",1,1,1.6009,0.7667,1,0.5,0.5,0.8342
46,1,68," S4-20.jpg",1,3," green","neutral",1,1,1.5191,0.95,1,0.5,0.5,0.5691
46,1,69," S3-12.jpg",2,2," purple","congruent",2,1,1.4833,0.7667,1,0.8,0.8,0.7166
46,1,70," S4-20.jpg",1,2," purple","incongruent",1,1,1.4128,0.8,1,0.8,0.2,0.6128
46,1,71," S3-12.jpg",2,3," green","neutral",1,0,1.3243,1,1,0.5,0.5,0.3243
46,1,72," S4-20.jpg",1,3," green","neutral",1,1,1.6367,0.7833,1,0.5,0.5,0.8534
46,1,73," S3-12.jpg",2,3," green","neutral",2,1,1.5192,0.85,1,0.5,0.5,0.6692
46,1,74," S4-20.jpg",1,1," orange","congruent",1,1,1.6251,1.0333,1,0.8,0.8,0.5918
46,1,75," S4-20.jpg",1,2," purple","incongruent",1,1,1.3659,0.8667,1,0.8,0.2,0.4992
46,1,76," S3-12.jpg",2,2," purple","congruent",2,1,1.697,0.95,1,0.8,0.8,0.747
46,1,77," S4-20.jpg",1,1," orange","congruent",1,1,1.7892,1.1667,1,0.8,0.8,0.6225
46,1,78," S3-12.jpg",2,3," green","neutral",2,1,1.6019,0.9,1,0.5,0.5,0.7019
46,1,79," S3-12.jpg",2,3," green","neutral",2,1,1.6244,0.8667,1,0.5,0.5,0.7577
46,1,80," S3-12.jpg",2,2," purple","congruent",2,1,1.4131,0.7833,1,0.8,0.8,0.6298
46,1,81," S4-20.jpg",1,1," orange","congruent",1,1,1.5418,0.9833,1,0.8,0.8,0.5585
46,1,82," S3-12.jpg",2,1," orange","incongruent",1,0,1.3738,0.8167,1,0.8,0.2,0.5571
46,1,83," S3-12.jpg",2,2," purple","congruent",2,1,1.3656,0.8,1,0.8,0.8,0.5656
46,1,84," S3-12.jpg",2,3," green","neutral",2,1,1.3187,0.8833,1,0.5,0.5,0.4354
46,1,85," S3-12.jpg",2,2," purple","congruent",2,1,1.3549,0.85,1,0.8,0.8,0.5049
46,1,86," S3-12.jpg",2,1," orange","incongruent",2,1,1.3651,0.8,1,0.8,0.2,0.5651
46,1,87," S3-12.jpg",2,2," purple","congruent",2,1,1.5298,0.8833,1,0.8,0.8,0.6465
46,1,88," S4-20.jpg",1,1," orange","congruent",1,1,1.613,1.0833,1,0.8,0.8,0.5297
46,1,89," S3-12.jpg",2,2," purple","congruent",2,1,1.5074,0.8833,1,0.8,0.8,0.6241
46,1,90," S3-12.jpg",2,1," orange","incongruent",2,1,1.4009,0.8833,1,0.8,0.2,0.5176
47,1,1," S2-19.jpg",1,1," yellow","congruent",NA,0,NA,0.75,1,0.8,0.8,NA
47,1,2," S1-15.jpg",2,1," yellow","incongruent",2,1,1.4792,0.8667,1,0.8,0.2,0.6125
47,1,3," S1-15.jpg",2,1," yellow","incongruent",2,1,1.4628,0.8833,1,0.8,0.2,0.5795
47,1,4," S1-15.jpg",2,2," red","congruent",2,1,1.4278,0.7667,1,0.8,0.8,0.6611
47,1,5," S1-15.jpg",2,2," red","congruent",2,1,1.6604,0.9167,1,0.8,0.8,0.7437
47,1,6," S2-19.jpg",1,3," blue","neutral",1,1,1.4848,0.8833,1,0.5,0.5,0.6015
47,1,7," S2-19.jpg",1,1," yellow","congruent",1,1,1.7215,1.0167,1,0.8,0.8,0.7048
47,1,8," S1-15.jpg",2,2," red","congruent",2,1,1.2957,0.7833,1,0.8,0.8,0.5124
47,1,9," S2-19.jpg",1,1," yellow","congruent",1,1,1.6365,1.1333,1,0.8,0.8,0.5032
47,1,10," S2-19.jpg",1,2," red","incongruent",1,1,1.6489,1.05,1,0.8,0.2,0.5989
47,1,11," S1-15.jpg",2,2," red","congruent",2,1,1.4588,0.7833,1,0.8,0.8,0.6755
47,1,12," S1-15.jpg",2,2," red","congruent",2,1,1.3426,0.7833,1,0.8,0.8,0.5593
47,1,13," S1-15.jpg",2,2," red","congruent",2,1,1.9775,1.5,1,0.8,0.8,0.4775
47,1,14," S1-15.jpg",2,1," yellow","incongruent",2,1,1.3657,0.85,1,0.8,0.2,0.5157
47,1,15," S1-15.jpg",2,1," yellow","incongruent",2,1,1.272,0.8333,1,0.8,0.2,0.4387
47,1,16," S1-15.jpg",2,2," red","congruent",2,1,1.2363,0.7667,1,0.8,0.8,0.4696
47,1,17," S1-15.jpg",2,3," blue","neutral",2,1,1.4954,0.8833,1,0.5,0.5,0.6121
47,1,18," S2-19.jpg",1,1," yellow","congruent",1,1,1.4133,0.8333,1,0.8,0.8,0.58
47,1,19," S1-15.jpg",2,2," red","congruent",2,1,1.8366,1.0333,1,0.8,0.8,0.8033
47,1,20," S2-19.jpg",1,1," yellow","congruent",1,1,1.7883,0.9833,1,0.8,0.8,0.805
47,1,21," S2-19.jpg",1,2," red","incongruent",1,1,1.437,0.95,1,0.8,0.2,0.487
47,1,22," S2-19.jpg",1,1," yellow","congruent",1,1,1.6125,0.9667,1,0.8,0.8,0.6458
47,1,23," S2-19.jpg",1,1," yellow","congruent",1,1,1.4603,0.8,1,0.8,0.8,0.6603
47,1,24," S2-19.jpg",1,1," yellow","congruent",1,1,1.5661,0.7833,1,0.8,0.8,0.7828
47,1,25," S2-19.jpg",1,1," yellow","congruent",1,1,1.3431,0.9833,1,0.8,0.8,0.3598
47,1,26," S2-19.jpg",1,1," yellow","congruent",1,1,1.2949,0.85,1,0.8,0.8,0.4449
47,1,27," S1-15.jpg",2,3," blue","neutral",2,1,1.2024,0.75,1,0.5,0.5,0.4524
47,1,28," S1-15.jpg",2,2," red","congruent",2,1,1.5312,0.95,1,0.8,0.8,0.5812
47,1,29," S2-19.jpg",1,3," blue","neutral",1,1,1.5903,0.9167,1,0.5,0.5,0.6736
47,1,30," S2-19.jpg",1,1," yellow","congruent",1,1,1.8012,1.1,1,0.8,0.8,0.7012
47,1,31," S1-15.jpg",2,2," red","congruent",2,1,1.3546,0.7667,1,0.8,0.8,0.5879
47,1,32," S1-15.jpg",2,2," red","congruent",2,1,1.7882,1.0167,1,0.8,0.8,0.7715
47,1,33," S2-19.jpg",1,3," blue","neutral",1,1,2.0366,1.0333,1,0.5,0.5,1.0033
47,1,34," S1-15.jpg",2,2," red","congruent",2,1,1.7072,0.7833,1,0.8,0.8,0.9239
47,1,35," S1-15.jpg",2,2," red","congruent",2,1,1.4484,0.85,1,0.8,0.8,0.5984
47,1,36," S1-15.jpg",2,3," blue","neutral",2,1,1.4017,0.9,1,0.5,0.5,0.5017
47,1,37," S1-15.jpg",2,3," blue","neutral",2,1,1.9659,1,1,0.5,0.5,0.9659
47,1,38," S1-15.jpg",2,3," blue","neutral",2,1,1.6011,1.1833,1,0.5,0.5,0.4178
47,1,39," S1-15.jpg",2,2," red","congruent",2,1,1.6247,0.9,1,0.8,0.8,0.7247
